Index,Accel X (LSB),Accel Y (LSB),Accel Z (LSB),Gyro X (LSB),Gyro Y (LSB),Gyro Z (LSB),Compass X (LSB),Compass Y (LSB),Compass Z (LSB),Temperature,
14691,28,-440,16416,29,-49,5,-89,217,275,32,04466,
14692,36,-512,16464,13,-22,3,-89,217,275,31,94881,
14693,-60,-436,16516,2,-62,-3,-78,217,262,32,04466,
14694,56,-520,16532,11,1,10,-84,212,262,32,04466,
14695,224,-456,16440,-3,-22,24,-78,223,265,31,85297,
14696,112,-428,16496,-6,-10,27,-78,223,265,32,09258,
14697,48,-512,16472,48,48,25,-80,213,266,31,94881,
14698,104,-396,16444,31,-33,0,-81,217,265,31,85297,
14699,44,-516,16424,66,8,54,-75,213,271,32,09258,
14700,96,-520,16424,30,-34,7,-75,213,271,31,94881,
14701,120,-452,16480,-39,-56,-9,-75,213,271,31,94881,
14702,128,-512,16440,-4,-53,19,-81,215,267,31,90089,
14703,24,-340,16432,-6,-41,5,-80,216,266,31,94881,
14704,4,-444,16532,39,-57,57,-80,216,266,31,94881,
14705,12,-452,16360,19,-27,24,-80,216,266,32,04466,
14706,32,-520,16484,-12,-38,1,-77,216,263,31,85297,
14707,88,-408,16384,27,-48,39,-87,213,266,31,94881,
14708,-20,-508,16528,28,-82,21,-87,216,263,32,04466,
14709,32,-528,16388,17,-27,13,-87,216,263,31,90089,
14710,36,-456,16448,38,-25,30,-87,216,263,31,94881,
14711,-32,-420,16484,-9,-71,-18,-80,219,268,32,1405,
14712,-48,-532,16352,-6,-55,13,-86,212,265,32,09258,
14713,36,-448,16412,21,-37,31,-86,212,265,32,09258,
14714,12,-424,16428,-7,-46,8,-86,212,267,32,1405,
14715,72,-488,16392,29,-41,30,-86,212,267,32,1405,
14716,104,-460,16460,11,-46,-8,-71,223,270,32,04466,
14717,-80,-492,16388,7,-53,13,-71,223,270,32,23635,
14718,56,-456,16532,11,-31,46,-77,213,271,31,85297,
14719,-24,-440,16460,-23,-48,-6,-80,219,263,31,94881,
14720,36,-424,16528,12,-60,34,-80,219,263,32,09258,
14721,104,-424,16440,-17,-32,49,-76,212,270,32,09258,
14722,48,-444,16508,33,-36,0,-81,223,272,31,94881,
14723,56,-408,16516,48,-33,39,-72,232,256,31,94881,
14724,-60,-492,16460,-26,-22,22,-76,225,260,32,04466,
14725,64,-456,16504,-1,-31,46,-76,225,260,32,09258,
14726,-28,-376,16508,18,-40,37,-76,225,260,32,09258,
14727,16,-516,16504,21,-55,-5,-80,221,263,32,04466,
14728,56,-388,16392,-6,-31,22,-75,213,268,31,94881,
14729,-8,-528,16428,5,-55,24,-75,213,268,32,04466,
14730,-4,-436,16440,-10,-27,-7,-75,213,268,31,94881,
14731,128,-536,16484,32,-40,42,-81,223,257,31,94881,
14732,52,-464,16504,29,-60,7,-80,219,256,32,04466,
14733,4,-408,16488,-22,-39,12,-84,212,267,31,94881,
14734,28,-432,16408,20,-35,20,-84,212,267,32,04466,
14735,-36,-496,16468,-2,-37,6,-76,220,265,31,94881,
14736,12,-404,16496,0,-61,33,-72,227,256,32,23635,
14737,-40,-544,16476,0,-11,56,-78,217,267,31,94881,
14738,64,-420,16484,14,-30,53,-78,217,267,31,94881,
14739,88,-424,16484,-37,-35,-25,-78,217,267,32,28427,
14740,-20,-408,16448,-24,-56,36,-84,225,260,32,09258,
14741,76,-464,16364,-37,-146,30,-87,227,266,32,09258,
14742,-4,-476,16444,-27,-85,39,-87,227,266,31,94881,
14743,-16,-524,16440,35,-64,38,-75,216,266,31,94881,
14744,28,-464,16444,33,-37,29,-75,216,266,31,94881,
14745,-8,-540,16488,15,-41,11,-77,211,266,32,04466,
14746,-32,-548,16552,30,-58,50,-82,221,263,32,09258,
14747,68,-512,16484,27,-29,17,-81,210,262,32,04466,
14748,56,-520,16440,22,-3,64,-76,212,275,32,09258,
14749,20,-432,16420,-10,5,34,-76,212,275,32,09258,
14750,56,-508,16420,32,-69,-22,-87,219,266,32,04466,
14751,-64,-388,16460,-21,-30,29,-87,219,266,31,90089,
14752,104,-492,16324,14,-29,20,-75,221,263,32,1405,
14753,8,-388,16440,8,-66,35,-73,225,262,31,90089,
14754,20,-488,16484,46,-48,4,-73,225,262,32,09258,
14755,-12,-460,16448,14,7,-3,-73,225,262,31,94881,
14756,0,-492,16524,-34,-64,-7,-78,225,260,32,04466,
14757,-28,-444,16472,32,-40,20,-84,212,265,32,04466,
14758,-32,-404,16440,13,-75,16,-80,221,263,31,94881,
14759,12,-460,16504,8,26,39,-80,221,263,32,09258,
14760,32,-480,16364,-8,-56,16,-81,225,262,31,85297,
14761,-4,-536,16424,1,-24,15,-71,223,260,32,04466,
14762,48,-416,16432,19,-10,-5,-82,227,263,32,04466,
14763,4,-484,16352,13,-36,31,-82,227,263,32,09258,
14764,-48,-420,16308,33,-55,21,-76,217,270,31,94881,
14765,28,-400,16404,-24,-54,34,-81,220,270,32,04466,
14766,-24,-528,16484,-19,-28,3,-89,231,265,31,85297,
14767,20,-528,16488,4,-50,10,-89,231,265,31,94881,
14768,-8,-560,16356,-19,-49,17,-89,231,265,32,04466,
14769,12,-464,16376,-5,-18,-13,-76,220,257,32,09258,
14770,28,-424,16448,-9,-59,8,-78,225,257,31,94881,
14771,-40,-440,16412,-4,-70,22,-78,225,257,31,94881,
14772,24,-492,16416,-31,-64,38,-85,224,258,32,09258,
14773,44,-596,16484,2,-76,29,-85,224,258,31,90089,
14774,-72,-424,16424,27,-41,12,-77,227,266,31,90089,
14775,24,-468,16464,38,-37,22,-75,229,261,32,04466,
14776,-24,-536,16448,-1,-25,5,-82,219,271,31,94881,
14777,32,-448,16484,29,-49,55,-84,215,262,31,90089,
14778,72,-564,16452,46,-53,48,-84,215,262,31,90089,
14779,-4,-408,16476,8,-55,13,-90,224,263,32,04466,
14780,64,-484,16524,-13,-50,16,-90,224,263,32,04466,
14781,36,-492,16472,29,-60,-8,-82,221,256,31,90089,
14782,36,-468,16420,10,-34,10,-78,212,260,32,09258,
14783,28,-436,16404,16,-19,7,-78,212,260,31,94881,
14784,72,-512,16444,54,-39,5,-78,212,260,32,09258,
14785,-60,-588,16468,18,-69,11,-81,220,260,32,04466,
14786,96,-524,16468,-15,-47,4,-78,223,260,31,90089,
14787,-72,-560,16420,35,-21,20,-78,223,260,32,04466,
14788,60,-500,16380,32,-60,19,-78,223,260,31,94881,
14789,-40,-376,16408,2,-43,-8,-70,219,266,32,04466,
14790,24,-476,16452,12,-64,9,-80,213,268,31,94881,
14791,148,-416,16392,-8,13,33,-90,224,271,31,90089,
14792,36,-328,16140,19,-71,32,-90,224,263,32,23635,
14793,96,-464,16460,1,-22,30,-90,224,263,31,85297,
14794,0,-452,16504,2,-46,17,-77,219,261,31,90089,
14795,0,-520,16504,35,-41,17,-72,211,268,32,04466,
14796,76,-636,16460,13,-50,4,-72,211,268,31,90089,
14797,-4,-532,16484,8,-58,31,-72,211,268,31,85297,
14798,-16,-512,16484,20,-3,27,-84,225,277,31,94881,
14799,68,-468,16448,1,-44,16,-85,219,261,32,04466,
14800,64,-596,16480,19,-19,8,-85,219,261,32,04466,
14801,16,-532,16512,21,-27,51,-78,217,270,32,09258,
14802,32,-356,16436,26,-30,8,-78,217,270,31,94881,
14803,20,-512,16472,-8,-62,28,-84,215,275,32,04466,
14804,-40,-436,16444,39,-6,-15,-84,223,265,32,1405,
14805,-20,-448,16448,40,-61,14,-75,216,256,32,04466,
14806,20,-472,16532,52,1,27,-82,219,261,31,94881,
14807,4,-492,16488,34,-5,29,-82,219,261,32,09258,
14808,-108,-480,16532,23,-11,22,-82,229,256,31,94881,
14809,0,-524,16568,27,-26,8,-82,229,256,32,1405,
14810,40,-416,16512,52,15,28,-80,221,263,31,94881,
14811,-16,-444,16476,32,45,-16,-87,224,261,31,94881,
14812,-28,-532,16472,86,18,15,-87,224,261,32,09258,
14813,-60,-496,16552,111,32,17,-87,224,261,31,94881,
14814,-28,-368,16272,105,-12,31,-86,228,267,31,94881,
14815,96,-468,16388,35,134,26,-81,210,270,31,94881,
14816,0,-588,16920,262,504,1,-89,215,267,32,04466,
14817,-140,-132,16496,-217,-666,-1884,-89,215,267,32,09258,
14818,16,-772,16000,17,-342,46,-82,219,268,32,04466,
14819,-80,-396,16420,-112,-201,23,-75,216,266,32,1405,
14820,12,-372,16352,-26,-126,37,-75,224,263,32,1405,
14821,-136,-464,16364,-19,-94,18,-75,224,263,32,04466,
14822,-40,-444,16340,-14,-100,-1,-75,224,263,31,94881,
14823,64,-404,16440,17,-39,11,-73,212,267,32,04466,
14824,32,-568,16604,22,19,-6,-85,213,273,31,90089,
14825,-44,-332,16572,33,18,-1,-85,213,273,32,04466,
14826,4,-424,16468,4,-82,6,-85,213,273,32,04466,
14827,-108,-504,16336,11,-61,20,-78,217,260,32,04466,
14828,-76,-480,16404,-1,-80,-13,-81,217,265,32,04466,
14829,16,-456,16528,21,-13,2,-80,216,258,32,04466,
14830,-44,-392,16432,22,-18,14,-71,225,265,31,75712,
14831,72,-396,16520,-2,-33,-33,-71,225,265,31,94881,
14832,80,-472,16412,-2,-50,7,-70,227,256,32,04466,
14833,-16,-428,16472,3,-25,-8,-78,223,260,31,94881,
14834,72,-416,16448,4,-36,27,-78,223,260,31,90089,
14835,124,-408,16380,35,-27,30,-78,217,265,31,94881,
14836,-92,-364,16556,-7,-44,13,-78,217,265,32,04466,
14837,-8,-420,16444,11,-38,25,-82,213,268,32,04466,
14838,40,-536,16444,30,-15,16,-82,213,268,31,94881,
14839,-52,-508,16544,0,-22,-5,-87,219,268,32,04466,
14840,-8,-496,16416,-2,-43,-3,-81,215,270,32,09258,
14841,24,-388,16500,29,-72,17,-81,215,270,32,09258,
14842,12,-476,16372,5,-62,41,-85,221,266,32,04466,
14843,32,-440,16396,41,-67,10,-82,216,266,31,85297,
14844,28,-436,16368,34,-65,5,-70,216,263,31,94881,
14845,80,-408,16412,-8,-43,26,-77,221,266,32,09258,
14846,44,-520,16276,397,114,48,-77,221,266,32,04466,
14847,-12,-292,16724,-562,-192,57,-77,221,266,32,04466,
14848,384,-1600,16316,1996,300,-873,-80,221,268,31,90089,
14849,-120,-544,16252,-212,95,1,-82,221,256,31,94881,
14850,48,-428,16452,-187,-154,30,-82,221,256,31,94881,
14851,-4,-428,16476,7,35,12,-82,221,256,31,94881,
14852,52,-332,16408,121,-75,4,-81,220,257,32,09258,
14853,-48,-380,16428,-20,68,-360,-77,221,263,31,85297,
14854,212,-556,16356,70,89,39,-77,221,263,32,1405,
14855,492,-828,16764,-147,-599,32,-76,228,260,31,85297,
14856,20,-424,16372,-442,-441,-199,-76,228,260,31,90089,
14857,-96,284,16660,565,286,413,-75,219,271,32,04466,
14858,488,308,16208,270,-199,-301,-82,221,266,31,94881,
14859,-196,-296,16348,-25,162,910,-84,220,257,31,85297,
14860,-48,1312,16652,-521,251,1525,-84,220,257,31,75712,
14861,-128,-20,16184,71,-325,690,-91,231,270,32,04466,
14862,-276,-584,16364,-10,-112,-52,-85,224,263,32,28427,
14863,-584,2084,16368,-379,251,1492,-85,224,263,32,04466,
14864,64,-384,18372,508,811,1644,-78,223,260,31,94881,
14865,100,-5132,17876,2656,1267,-2161,-78,223,260,32,04466,
14866,-588,4336,16864,1315,-535,-1450,-81,225,257,32,04466,
14867,-344,-436,16412,1332,578,-1542,-81,225,257,32,04466,
14868,-908,3192,15172,1164,1324,674,-76,231,255,32,04466,
14869,-164,8,16308,416,320,-9,-81,225,257,31,90089,
14870,-216,-292,16396,218,592,-250,-81,225,257,31,90089,
14871,-660,532,16364,0,698,-102,-81,236,265,32,1405,
14872,-648,308,16508,-18,1150,-342,-72,221,266,32,04466,
14873,-736,824,16372,944,641,1023,-70,229,268,32,04466,
14874,-484,1716,16540,416,-101,2915,-70,224,263,31,85297,
14875,-948,1292,17280,356,-75,8484,-70,224,263,32,04466,
14876,-476,2440,18928,-2137,-1801,18690,-71,238,262,31,90089,
14877,-4644,3604,18412,475,1748,32767,-72,227,258,32,23635,
14878,-1188,-1232,18152,6226,4273,32767,-78,220,262,31,75712,
14879,-336,2532,14760,9977,1277,32767,-78,220,262,32,04466,
14880,-4628,2224,15200,5995,-220,29000,-78,220,262,31,85297,
14881,-40,2584,16076,5707,-1140,26663,-73,254,262,32,09258,
14882,-976,2664,15240,5369,-296,15499,-85,269,256,32,38012,
14883,-1152,3288,16872,2679,-74,19648,-85,269,256,31,94881,
14884,1776,1964,15652,5755,141,16431,-98,295,256,32,04466,
14885,1516,1412,14424,2983,3341,8798,-98,295,256,32,09258,
14886,740,-624,16484,-1913,1897,7241,-105,303,261,32,09258,
14887,2540,1048,15256,352,2500,2802,-104,304,257,31,94881,
14888,544,2780,16512,-2287,2504,4114,-105,305,263,31,94881,
14889,1676,2424,15836,-803,764,3267,-105,305,263,32,04466,
14890,-200,2424,15884,426,1921,4012,-101,307,270,32,04466,
14891,1624,1996,15508,-1347,1371,1188,-101,299,265,32,1405,
14892,648,3464,15996,-967,900,1185,-101,299,265,31,90089,
14893,1156,4060,16296,-108,157,2190,-96,301,277,31,75712,
14894,628,2956,16160,1289,875,1672,-96,301,277,32,04466,
14895,948,2512,15932,-110,918,-526,-94,301,272,32,04466,
14896,708,2940,15912,45,-218,1319,-94,301,272,31,94881,
14897,80,2724,16060,-187,-325,1112,-96,309,267,31,90089,
14898,864,3212,15940,-344,-220,-5,-91,304,267,32,09258,
14899,548,3288,16192,-47,-360,185,-91,304,267,32,04466,
14900,-80,2736,16264,480,521,-637,-101,301,275,32,04466,
14901,608,3028,16112,-513,295,-710,-99,304,272,31,94881,
14902,216,3484,16096,-386,593,-375,-96,294,270,32,04466,
14903,704,3468,15768,811,548,400,-103,305,278,32,04466,
14904,712,3164,15872,979,-307,798,-103,305,278,31,94881,
14905,768,3180,16256,306,-448,362,-96,304,272,32,09258,
14906,72,3476,16580,207,333,391,-91,304,275,31,94881,
14907,260,3252,16452,221,193,129,-100,303,276,32,04466,
14908,628,2868,15992,-12,-217,156,-100,303,276,31,94881,
14909,580,3184,15984,-148,-471,331,-100,303,276,31,85297,
14910,472,3004,15888,-465,109,-930,-104,304,265,32,09258,
14911,484,3644,16328,-539,-445,-88,-103,300,268,31,94881,
14912,624,3188,16132,-411,-360,-72,-103,300,268,31,94881,
14913,684,3192,15724,137,108,-81,-100,308,271,31,94881,
14914,592,3124,15904,101,42,-235,-100,308,271,31,94881,
14915,356,2984,16112,-198,221,-164,-94,299,270,31,94881,
14916,996,3280,16224,-272,-261,2,-94,294,280,32,23635,
14917,792,3352,15920,11,-760,100,-90,305,258,31,90089,
14918,144,2832,16088,307,7,13,-96,296,270,32,04466,
14919,660,2968,15948,209,-224,286,-96,296,270,31,90089,
14920,484,3488,15996,890,-147,224,-91,307,270,31,85297,
14921,916,3060,16192,627,-344,17,-91,307,270,31,85297,
14922,572,2640,16024,-83,-460,-236,-89,294,267,32,09258,
14923,508,2884,16168,-257,48,-1167,-89,294,267,32,04466,
14924,1676,3004,16344,-806,-671,-2448,-91,307,280,31,90089,
14925,-16,2844,15740,-997,1175,-11729,-91,307,280,31,94881,
14926,2564,-6048,14424,-13655,1075,-32768,-92,300,278,31,90089,
14927,-8676,-10000,17708,-20424,3620,-32768,-54,263,283,32,1405,
14928,-4464,2548,19224,-14477,-8255,-32768,-54,263,283,32,09258,
14929,-8020,-10428,16152,2079,14970,-32768,-54,263,283,31,94881,
14930,-756,9436,15484,4159,2949,-22948,-44,203,291,32,04466,
14931,-4140,-3976,17928,347,-4587,-19611,-47,198,296,31,94881,
14932,-7468,320,14940,-286,2983,-13276,-45,202,290,32,09258,
14933,-2228,2392,14460,3696,1448,-8558,-45,202,290,32,04466,
14934,-1076,-1284,17312,-2059,3278,-6187,-43,199,292,32,09258,
14935,1344,-2908,18360,-3074,72,-2751,-36,179,286,32,04466,
14936,-2412,-1560,16148,-2209,-275,-2876,-30,183,287,31,75712,
14937,-912,-720,15108,-1709,270,-4518,-30,183,287,31,94881,
14938,416,-808,15640,328,1512,-729,-30,183,287,32,09258,
14939,-460,-2196,16640,112,362,-580,-28,175,290,32,04466,
14940,-944,-3132,17104,-1842,1703,336,-33,181,290,32,1405,
14941,-1124,-1160,15416,-470,289,116,-33,181,290,31,94881,
14942,-1676,-2768,15840,-835,460,-1286,-33,170,282,32,04466,
14943,-304,-2240,16332,-107,728,258,-33,170,282,32,1405,
14944,-1796,-1868,16252,-163,651,309,-31,174,286,32,1405,
14945,-860,-2648,16744,-995,395,316,-26,177,291,31,94881,
14946,-436,-2160,16280,-923,-562,-26,-28,175,280,32,09258,
14947,-2116,-2940,16256,-632,680,-176,-31,179,291,31,94881,
14948,-356,-2396,16484,-214,-496,258,-31,179,291,32,04466,
14949,-1516,-2344,16268,-88,-874,-44,-26,177,291,31,94881,
14950,-504,-2832,16656,-486,254,1008,-40,173,282,31,85297,
14951,-1776,-1996,15920,24,-259,287,-30,165,290,32,1405,
14952,-1036,-2660,16216,-180,291,1458,-30,165,290,31,94881,
14953,-864,-2628,16344,213,-877,551,-22,173,280,32,1405,
14954,-1436,-2796,16296,-589,142,1536,-22,173,280,32,09258,
14955,-1620,-1888,15892,50,-299,1508,-30,181,282,32,1405,
14956,-2244,-3260,15992,-354,480,906,-28,168,272,31,94881,
14957,-952,-2672,16072,247,-72,711,-28,168,272,31,94881,
14958,-836,-3264,16488,-234,-188,650,-28,168,272,31,75712,
14959,-812,-3328,16392,-499,168,846,-39,164,271,31,75712,
14960,-1068,-2744,15912,-327,-547,128,-19,177,278,31,94881,
14961,-1544,-2404,15520,-506,600,959,-35,170,282,32,04466,
14962,-256,-2636,16032,30,210,1378,-35,170,282,32,04466,
14963,-1952,-3160,16500,-480,257,937,-26,171,278,32,28427,
14964,-1376,-2832,16364,218,243,591,-25,160,280,31,94881,
14965,-2048,-3424,16480,80,268,-249,-29,164,278,32,04466,
14966,-1236,-2916,16476,-89,277,711,-29,164,278,31,94881,
14967,-1180,-2960,16256,85,-547,145,-29,164,278,32,09258,
14968,-1348,-3004,16296,143,-199,215,-24,161,271,31,94881,
14969,-1176,-3276,16480,-151,-457,-241,-30,170,272,31,85297,
14970,-1196,-2600,16020,-25,-63,494,-30,170,272,32,1405,
14971,-1272,-2816,16020,179,-89,611,-21,161,278,31,90089,
14972,-1388,-3068,16120,-74,82,891,-21,161,278,32,1405,
14973,-1176,-2768,15976,391,-87,739,-26,171,276,32,09258,
14974,-1460,-3112,16420,-289,-34,746,-26,171,276,32,09258,
14975,-1300,-2600,16176,-55,203,1069,-25,170,277,32,09258,
14976,-1520,-2872,16264,34,-233,436,-17,178,267,32,1405,
14977,-1336,-2548,16132,149,273,1371,-17,178,267,32,09258,
14978,-1808,-2268,16268,274,179,1457,-16,171,283,32,04466,
14979,-2728,-2280,16528,-767,898,2603,-25,178,277,31,75712,
14980,-3492,544,16688,-421,28,5181,-22,168,275,32,04466,
14981,-5688,2600,16768,-1488,1338,9000,-19,161,276,32,09258,
14982,-7684,4900,16964,-1638,561,10091,-19,161,276,31,94881,
14983,-6608,3608,16440,-1425,314,18000,-19,161,276,31,90089,
14984,-4012,2816,15176,1929,-2774,20610,-11,150,278,32,1405,
14985,-6676,-4296,13732,-138,2917,16311,-1,158,278,32,09258,
14986,1716,-4528,11944,3176,-397,17634,-1,158,278,32,1405,
14987,-2152,-13568,17640,-554,-5021,14153,-1,158,278,31,94881,
14988,-1668,-9124,16712,-499,-2670,14343,0,181,307,32,09258,
14989,-148,-2816,15240,2023,-4416,12358,-6,182,301,32,09258,
14990,-4052,-7008,19432,-3479,-2922,5232,-17,194,310,32,09258,
14991,-276,-2476,15168,1254,1604,1960,-17,194,310,31,75712,
14992,-2696,-1996,16688,149,-243,1816,-26,190,316,32,04466,
14993,-1660,-1672,17328,153,489,482,-16,192,323,31,85297,
14994,-1560,-1628,16608,100,-594,-169,-6,195,318,31,85297,
14995,-2716,-196,16500,-20,1504,501,-6,195,318,32,04466,
14996,-1216,-48,16156,1021,-583,-223,-6,195,318,32,04466,
14997,-2812,-948,16420,523,9,-47,-11,190,306,32,04466,
14998,-1836,-1548,16460,469,1168,552,-17,202,315,32,04466,
14999,-3064,-704,16452,78,1485,723,-17,202,315,32,04466,
15000,-2640,-616,15964,-329,1072,1586,-12,196,315,32,1405,
15001,-1544,-664,15928,-386,-718,-535,-12,196,315,31,94881,
15002,-2128,-344,16216,388,280,977,-5,189,305,31,90089,
15003,-2060,-836,16016,382,-284,431,-5,189,305,32,04466,
15004,-2176,-824,16516,418,-188,293,-10,194,312,32,04466,
15005,-2504,-1096,16144,368,146,1203,-7,194,307,31,94881,
15006,-2892,-1296,16688,194,43,-81,-7,194,307,32,04466,
15007,-2644,-876,16104,571,381,299,-12,199,312,31,94881,
15008,-2380,-812,16292,-79,407,127,-6,208,313,32,28427,
15009,-2328,-988,16612,31,-118,-204,-16,187,313,31,94881,
15010,-2308,-1024,16308,90,-8,-14,-10,202,315,32,04466,
15011,-2460,-408,16192,-74,10,-141,-10,202,315,32,04466,
15012,-2060,-408,16104,422,-118,203,-10,202,315,31,94881,
15013,-2192,-968,16316,-4,90,216,-6,203,308,32,04466,
15014,-2596,-908,16496,337,903,600,-15,199,297,32,04466,
15015,-2164,-736,16460,-265,172,343,-15,199,297,31,94881,
15016,-2436,-748,16408,-207,86,-68,-15,199,297,31,94881,
15017,-2104,-856,16256,-131,-6,270,-7,194,315,32,04466,
15018,-2000,-900,16112,-129,-468,543,-15,194,310,31,90089,
15019,-2376,-512,16176,128,-243,419,-7,204,307,31,94881,
15020,-2640,-916,15996,14,24,609,-7,204,307,32,04466,
15021,-2504,-588,16204,-28,-488,19,-3,208,301,32,04466,
15022,-2780,-908,16456,-236,24,252,-15,207,310,32,04466,
15023,-2712,-444,16160,62,215,296,-8,200,311,32,09258,
15024,-2368,-744,16144,92,-7,125,-7,202,315,32,04466,
15025,-2820,-756,16156,-151,18,52,-7,202,315,32,04466,
15026,-2300,-564,16232,86,11,524,0,207,307,32,1405,
15027,-2676,-668,16200,104,66,382,-5,204,312,31,90089,
15028,-2428,-736,16148,96,47,368,-5,204,312,31,85297,
15029,-2328,-660,15976,125,164,438,-19,206,306,32,04466,
15030,-2516,-500,16212,248,-261,-60,-19,206,306,32,04466,
15031,-2860,-752,16364,30,444,165,-15,204,310,31,94881,
15032,-2172,-728,16196,82,64,115,-15,204,310,31,94881,
15033,-2536,-832,16316,-148,111,192,-12,202,307,32,04466,
15034,-2568,-116,16076,116,212,516,-15,199,312,31,94881,
15035,-2736,-612,16240,-170,204,-59,-15,199,312,32,09258,
15036,-2824,-312,16132,29,401,415,-3,208,301,32,04466,
15037,-2408,-912,16484,-7,114,236,1,206,306,31,94881,
15038,-2808,-564,16440,-60,131,291,-16,206,306,32,04466,
15039,-2328,-796,16368,-392,16,226,-8,206,313,32,04466,
15040,-2556,-652,16232,-79,86,454,-8,206,313,31,90089,
15041,-2480,-844,16216,-302,174,201,-14,195,298,32,09258,
15042,-2800,-476,16140,-176,110,121,-3,200,296,32,04466,
15043,-2704,-404,16080,-59,20,64,-6,203,313,32,04466,
15044,-2628,-592,16176,-119,-135,-37,-6,203,313,32,04466,
15045,-3044,-352,16192,36,136,96,-6,203,313,31,94881,
15046,-2780,-668,16340,-33,86,115,-8,198,303,32,04466,
15047,-2432,-660,16080,233,-9,105,-2,204,310,32,04466,
15048,-2416,-820,16128,344,-31,302,-2,204,310,31,94881,
15049,-3332,-512,16180,388,664,295,-2,204,310,32,04466,
15050,-2896,-484,16176,521,243,214,-5,204,315,32,04466,
15051,-2736,-568,16164,303,19,-161,-10,202,310,32,23635,
15052,-3084,-332,16300,925,754,330,-10,202,310,31,94881,
15053,-2832,-1864,16888,1351,1024,138,-3,208,308,31,94881,
15054,-2708,-3628,17124,1994,1659,161,-3,208,308,31,90089,
15055,-3320,-7832,17576,1084,834,-1941,-7,212,312,32,04466,
15056,-3096,-10832,18728,521,2883,-829,-3,221,298,32,04466,
15057,-412,-13556,20800,-5711,-3109,-4942,8,206,286,31,90089,
15058,-5232,-3464,17644,-5270,-4347,-4041,0,207,280,31,94881,
15059,-3144,856,14440,-2272,-4903,18,0,207,280,32,04466,
15060,2300,980,12300,-1815,-5884,-9745,-12,210,277,32,09258,
15061,-2752,7416,12532,2381,-9566,-8469,-12,210,277,32,04466,
15062,-2860,3908,15048,1627,-4724,-4411,-54,208,256,32,04466,
15063,-1664,4980,16364,2363,-7690,-9132,-64,216,268,32,28427,
15064,-4348,5304,15416,4384,1474,-3863,-64,216,268,31,75712,
15065,728,2732,17204,2634,911,-2890,-64,216,268,32,04466,
15066,-1572,3120,16876,2559,654,-2162,-63,236,260,32,1405,
15067,108,1060,16844,1492,1660,-957,-72,242,253,31,94881,
15068,336,-508,17388,15,309,-1556,-64,240,253,32,04466,
15069,-332,808,16360,1318,2986,805,-64,240,253,31,90089,
15070,292,-288,16484,334,1173,-220,-75,245,251,31,94881,
15071,-676,116,16408,61,-281,-30,-78,236,262,32,04466,
15072,-1432,-456,16792,-341,619,435,-66,238,252,31,85297,
15073,-1996,-1036,17096,-1620,1753,-102,-73,246,262,32,04466,
15074,-740,284,15964,-682,1319,36,-73,246,262,32,09258,
15075,-1016,-228,16164,-604,888,292,-68,236,255,31,94881,
15076,-320,596,15976,431,352,982,-64,229,258,31,94881,
15077,-968,-928,16816,25,-429,-48,-64,229,258,32,1405,
15078,-1340,-108,16836,283,521,635,-61,223,252,31,90089,
15079,-1100,-256,16608,35,206,260,-61,223,252,31,94881,
15080,-1196,-192,16244,-21,195,-232,-61,231,255,31,94881,
15081,-828,-444,17136,-100,-164,299,-61,231,255,31,85297,
15082,-900,-320,16400,-327,84,362,-68,228,255,32,04466,
15083,-824,-504,16476,-112,-553,267,-68,228,255,32,04466,
15084,-1584,-428,16476,-157,140,235,-66,228,250,32,04466,
15085,-1448,-112,16304,-19,353,-31,-67,227,251,31,85297,
15086,-916,-40,16352,222,59,-274,-71,233,252,32,1405,
15087,-1092,-736,16688,-478,16,-160,-70,229,256,32,04466,
15088,-1604,236,16052,106,625,661,-70,229,256,31,90089,
15089,-1012,4,16128,260,371,-119,-68,228,247,32,09258,
15090,-972,-272,16524,-88,-320,-404,-68,228,247,31,75712,
15091,-1136,240,16404,435,363,600,-85,224,261,32,1405,
15092,-1128,-524,16692,112,134,542,-59,227,258,32,04466,
15093,-1156,-392,16368,23,173,206,-59,227,258,32,1405,
15094,-1660,-380,16536,-328,160,129,-59,227,258,31,94881,
15095,-1384,1020,16020,382,64,584,-72,232,253,32,1405,
15096,-1388,-628,16432,195,365,89,-76,223,255,32,09258,
15097,-1164,-312,16608,3,-55,65,-71,225,247,32,04466,
15098,-1584,-220,16480,-275,-85,291,-71,225,247,32,04466,
15099,-1416,32,16332,-204,233,-194,-76,233,242,32,04466,
15100,-1100,-180,16444,61,-126,144,-66,231,255,32,04466,
15101,-1248,-248,16460,-158,-154,84,-75,227,251,31,75712,
15102,-1004,-68,16392,106,-205,152,-67,221,253,31,85297,
15103,-1528,-68,16288,20,-65,271,-67,221,253,31,94881,
15104,-1636,184,16128,77,271,186,-76,241,255,32,04466,
15105,-1436,-296,16360,64,177,445,-82,227,253,32,04466,
15106,-1488,-376,16324,10,185,-57,-82,227,253,32,04466,
15107,-1520,0,16384,276,223,-258,-63,225,245,32,09258,
15108,-1300,-480,16524,54,118,-258,-63,225,245,32,1405,
15109,-1204,-376,16692,65,-44,-76,-68,228,255,32,04466,
15110,-1220,-284,16544,-228,-291,-6,-68,228,255,32,04466,
15111,-1580,80,16372,-119,-157,8,-68,231,257,32,09258,
15112,-1700,324,16460,54,-35,-28,-68,231,257,32,04466,
15113,-972,-420,16468,-126,-420,-398,-73,225,255,32,04466,
15114,-1280,-280,16212,-12,345,125,-76,236,255,31,7092,
15115,-880,-60,16200,204,-250,-227,-67,234,256,32,04466,
15116,-1304,-192,16528,86,-378,-273,-68,223,250,32,04466,
15117,-1712,-364,16476,108,155,191,-68,223,250,31,90089,
15118,-1536,-252,16564,-93,105,166,-72,232,253,32,09258,
15119,-1268,-32,16460,7,135,-2,-72,232,253,32,04466,
15120,-1388,-216,16648,-84,-261,-193,-62,227,256,32,04466,
15121,-1376,-316,16568,-56,414,45,-71,217,252,32,1405,
15122,-1288,260,16280,73,93,117,-71,217,252,31,94881,
15123,-1132,-272,16384,96,125,-75,-71,217,252,31,94881,
15124,-1248,-192,16264,187,86,97,-66,225,245,31,94881,
15125,-1604,-56,16640,203,95,86,-75,227,258,32,09258,
15126,-1388,-200,16376,118,352,328,-75,227,258,32,1405,
15127,-1760,-152,16056,3,350,-128,-75,227,258,32,04466,
15128,-1772,-224,16404,63,162,187,-70,227,263,31,90089,
15129,-1356,-44,16368,69,-380,-189,-61,228,260,31,90089,
15130,-1776,-312,16680,32,148,83,-73,228,247,32,23635,
15131,-1356,-332,16484,-185,30,59,-72,232,261,32,09258,
15132,-1424,76,16144,-37,-51,-177,-72,232,261,32,09258,
15133,-1380,-272,16520,-163,73,-31,-71,231,255,31,85297,
15134,-1696,-32,16448,-215,467,680,-71,217,257,32,04466,
15135,-1336,512,15896,-75,476,325,-71,217,257,32,04466,
15136,-1364,-84,15896,263,-126,-397,-68,231,257,31,94881,
15137,-1624,-512,16444,-78,376,233,-68,231,257,31,94881,
15138,-1584,-184,16252,242,279,238,-66,220,255,31,90089,
15139,-1524,-400,16528,50,-14,38,-66,220,255,31,94881,
15140,-1736,-232,16544,-17,-62,113,-62,232,248,31,94881,
15141,-1652,180,16224,166,-4,194,-64,224,258,32,04466,
15142,-1552,-208,16424,-59,-332,-56,-64,224,258,32,04466,
15143,-1816,92,16372,168,-11,187,-66,223,257,32,04466,
15144,-1552,-448,16640,24,-163,-180,-67,221,251,31,94881,
15145,-1400,-272,16412,-214,-304,-138,-75,219,246,31,94881,
15146,-1680,20,16224,-138,-221,251,-75,219,246,32,04466,
15147,-1540,-84,16204,-151,-189,36,-64,224,258,32,1405,
15148,-1476,-96,16224,32,-128,68,-64,224,258,32,09258,
15149,-1748,-432,16316,-87,138,94,-68,228,247,32,09258,
15150,-1520,-92,16088,40,147,-3,-57,227,251,31,61335,
15151,-1500,-408,16328,141,73,81,-57,227,251,31,94881,
15152,-1580,-356,16636,27,-42,-72,-57,227,251,32,04466,
15153,-1584,-88,16472,97,81,55,-68,223,255,32,1405,
15154,-1296,-32,16344,135,-215,27,-63,220,257,32,23635,
15155,-1768,-388,16484,-225,-280,-319,-63,220,257,32,1405,
15156,-1572,-4,16280,-163,-230,-91,-63,220,257,32,38012,
15157,-1644,-156,16300,-46,-84,131,-73,225,250,31,94881,
15158,-1540,16,16068,192,55,42,-71,220,265,31,94881,
15159,-1500,-124,16268,52,-141,-131,-75,229,251,32,09258,
15160,-1928,-248,16316,50,147,-11,-70,227,256,31,85297,
15161,-1524,-260,16424,163,125,50,-70,227,256,31,7092,
15162,-1668,-312,16408,-93,108,-22,-67,219,253,32,23635,
15163,-1564,184,16260,159,146,161,-72,221,251,32,04466,
15164,-2192,124,16404,320,-193,42,-72,221,251,32,04466,
15165,-1796,468,16580,24,-116,-199,-81,228,260,31,90089,
15166,-2156,1216,16400,112,314,613,-81,228,260,32,1405,
15167,-2284,1952,16508,-399,1081,1787,-71,215,252,31,90089,
15168,-2552,5208,15868,-594,1638,3554,-71,215,252,32,04466,
15169,-4044,6472,15988,-1843,812,4267,-53,215,257,32,04466,
15170,-3656,6520,16092,-2614,-319,5016,-35,207,262,32,09258,
15171,-3084,5148,16244,-726,6,6926,-35,207,262,31,90089,
15172,-4936,172,15968,-770,4913,9353,-29,203,273,32,04466,
15173,148,-624,13572,698,1416,7787,-20,196,272,31,94881,
15174,-4508,-576,14548,2578,1292,7436,-17,210,280,32,04466,
15175,-1248,-5260,16068,1072,1727,8434,-17,210,280,32,04466,
15176,-276,-5680,17920,834,1111,5004,-10,207,282,32,38012,
15177,-1960,-4380,17900,739,3479,8161,-11,211,308,32,1405,
15178,-1620,-4184,17524,-826,2580,6381,-7,225,315,31,94881,
15179,-3396,-2056,16800,-487,1645,4191,0,220,315,32,09258,
15180,-4124,-996,15636,923,2750,3593,0,220,315,32,04466,
15181,-3672,-2112,16244,-437,-1022,459,0,220,315,31,94881,
15182,-5208,-868,16380,-328,518,1035,2,228,327,32,09258,
15183,-4008,132,15856,340,939,1276,3,216,313,31,94881,
15184,-3328,196,16456,-417,-1299,-891,3,216,313,32,04466,
15185,-4556,560,16672,-284,657,-247,3,216,313,31,85297,
15186,-3792,520,16340,-606,536,-97,-3,224,318,32,04466,
15187,-3388,836,15980,-518,289,-461,-10,223,317,32,04466,
15188,-2920,640,15760,-492,488,-292,-6,227,323,32,04466,
15189,-3452,1140,15836,-155,-35,-9,-6,224,316,31,94881,
15190,-3312,932,15952,451,56,489,-6,224,316,32,04466,
15191,-3504,64,16224,-284,-203,49,1,219,321,32,04466,
15192,-3340,644,15748,-234,-174,335,-1,227,326,31,90089,
15193,-3988,1072,15856,273,177,720,-1,227,326,31,94881,
15194,-3552,368,15716,119,-217,-153,-2,223,317,32,1405,
15195,-4048,844,15900,333,369,364,-2,223,317,32,04466,
15196,-3488,396,16044,100,241,218,-2,228,322,32,04466,
15197,-3272,176,16304,-170,-215,-186,-2,228,322,32,09258,
15198,-3564,348,15980,-249,168,216,2,231,312,32,1405,
15199,-3180,604,16008,-164,-228,95,-2,223,322,32,04466,
15200,-3352,372,15988,-112,-203,140,-2,223,322,31,94881,
15201,-3780,604,16036,-284,-416,51,-2,223,322,31,94881,
15202,-3880,544,16172,-308,26,298,-6,221,316,31,94881,
15203,-3400,400,16008,-454,-290,52,-10,233,327,31,85297,
15204,-3692,684,15964,-10,30,344,1,227,321,32,1405,
15205,-3512,652,15864,3,-203,494,1,227,321,32,04466,
15206,-3268,348,16060,-52,-586,-29,0,225,325,31,94881,
15207,-3748,192,16168,-233,-3,133,-7,220,327,32,1405,
15208,-3424,520,16108,-18,5,255,-11,216,323,32,04466,
15209,-3732,316,15996,-124,-50,302,-11,216,323,32,09258,
15210,-3612,312,16020,42,438,355,-11,216,323,32,04466,
15211,-3080,636,15736,131,-232,76,-5,223,312,32,04466,
15212,-3956,608,16060,178,-97,176,-5,220,312,32,1405,
15213,-3420,352,16264,-53,-123,276,-5,220,312,32,23635,
15214,-3028,308,16016,-47,-465,149,-5,220,312,32,1405,
15215,-3636,332,16248,-34,-53,394,-8,229,318,32,04466,
15216,-3188,404,16216,-141,-155,441,-2,217,315,31,94881,
15217,-3956,644,15992,-287,-247,292,-1,227,321,32,04466,
15218,-3388,492,15912,-130,-397,336,-2,225,320,32,28427,
15219,-3772,396,15952,-224,79,299,-2,225,320,32,1405,
15220,-3176,404,15908,-176,-247,99,6,221,313,32,23635,
15221,-3276,320,16036,-89,-317,368,-7,223,327,32,04466,
15222,-3652,384,16136,-12,-310,196,3,221,323,31,94881,
15223,-3276,-92,16180,-277,-380,152,-8,216,321,32,04466,
15224,-3468,248,16052,-280,-56,264,-8,216,321,31,94881,
15225,-3228,96,16072,-261,-147,-26,-3,227,313,32,23635,
15226,-3372,584,16072,27,-104,199,-3,227,313,32,04466,
15227,-3284,304,16056,112,-154,218,-5,215,330,32,04466,
15228,-3044,-260,16400,-288,-407,150,-12,225,325,32,09258,
15229,-3548,408,16092,-150,114,418,-12,225,325,32,04466,
15230,-3252,516,16028,-199,1,195,-12,225,325,32,09258,
15231,-3420,368,15864,64,145,106,-6,221,313,32,04466,
15232,-3096,212,16208,179,-143,-212,-8,221,316,32,09258,
15233,-3564,264,16020,64,318,95,-12,220,325,32,09258,
15234,-3376,140,16072,216,463,253,-12,220,325,32,1405,
15235,-3172,708,15848,211,40,159,-8,221,321,32,1405,
15236,-3144,-92,16268,128,-84,-101,-3,221,321,32,1405,
15237,-3404,468,16040,422,121,290,-5,217,325,32,04466,
15238,-3492,216,16148,323,1,165,-5,217,325,32,04466,
15239,-3604,208,16420,353,53,-39,-5,217,325,32,1405,
15240,-3744,452,16056,951,842,392,-12,217,317,32,23635,
15241,-3756,228,15996,2377,1528,1154,-8,224,318,31,94881,
15242,-3908,-876,16752,3661,2377,1344,-8,224,318,32,04466,
15243,-3644,-4980,17704,1010,572,-1982,-8,224,318,32,04466,
15244,-5520,-3816,16560,1371,684,-4530,5,233,320,32,04466,
15245,-4776,-2940,16752,1456,1746,-4544,11,237,308,32,1405,
15246,-4508,-5444,18952,-2175,-2951,-9066,16,240,296,32,23635,
15247,-6372,-1564,16352,-231,210,-9825,11,229,283,32,09258,
15248,-4252,636,14564,980,-183,-8057,11,229,283,32,1405,
15249,1492,-2664,14476,-4745,-8486,-17378,20,233,275,31,94881,
15250,-4072,3660,11844,904,-6117,-14357,6,211,276,32,09258,
15251,-3828,1856,15340,1275,-6676,-10328,6,211,276,32,09258,
15252,-3896,1692,15672,545,-7271,-11438,-36,206,273,32,04466,
15253,-5304,4476,16300,931,-3739,-5240,-36,206,273,31,94881,
15254,-4088,796,17700,-902,-3190,-6880,-70,213,271,31,94881,
15255,-3788,3640,16932,-56,-1890,-4989,-70,213,271,32,04466,
15256,-1544,2384,15852,-777,-556,-3013,-81,220,270,31,90089,
15257,-368,1040,15568,-102,-921,-3523,-77,219,261,31,94881,
15258,-1072,1580,15640,489,461,-1387,-77,219,261,32,04466,
15259,-796,548,16588,276,606,-896,-72,224,261,32,04466,
15260,-916,324,16452,198,1202,173,-73,231,257,32,04466,
15261,-316,548,16144,137,691,93,-66,220,262,32,09258,
15262,180,-324,16504,-107,76,-435,-72,229,258,32,04466,
15263,-1516,36,15908,556,596,580,-72,229,258,31,94881,
15264,-728,-716,16864,140,-24,428,-72,229,258,31,94881,
15265,-1028,-732,16684,-329,-402,57,-64,232,253,31,94881,
15266,-1380,-304,16388,-176,414,786,-68,225,255,32,09258,
15267,-1500,-488,16332,-319,891,903,-68,225,255,31,94881,
15268,-852,-540,16340,-17,-142,302,-68,225,255,32,04466,
15269,-1408,-312,16264,200,917,1109,-64,224,263,31,94881,
15270,-744,-560,16760,267,-550,-120,-67,227,266,32,23635,
15271,-832,-992,16720,-243,-205,376,-67,227,266,31,94881,
15272,-972,-892,16624,-1010,-772,-202,-67,227,266,32,09258,
15273,-892,-864,15680,-246,-217,-317,-72,216,256,32,38012,
15274,-828,-532,16876,-36,-982,-146,-68,225,262,32,09258,
15275,-1664,-608,16504,-54,-33,428,-71,220,255,31,94881,
15276,-664,-728,16388,-141,-166,-298,-73,212,270,31,85297,
15277,-1188,-352,16184,175,202,262,-73,212,270,32,1405,
15278,-780,-540,16340,286,168,111,-77,216,256,32,09258,
15279,-1340,-1056,16696,-617,376,119,-73,212,257,32,23635,
15280,-848,-224,16208,-11,-114,115,-73,212,257,32,09258,
15281,-1116,-996,16372,138,-165,-200,-72,219,256,32,04466,
15282,-812,-488,16304,131,-44,-248,-72,219,256,32,04466,
15283,-1456,-392,16236,327,445,150,-68,215,260,31,94881,
15284,-736,-952,16656,1,-20,-11,-68,215,260,32,04466,
15285,-1180,-744,16416,-132,-132,33,-73,215,252,32,09258,
15286,-1132,-220,16396,116,217,334,-71,223,262,32,09258,
15287,-1184,-616,16432,-49,151,74,-71,223,262,32,04466,
15288,-920,-432,16468,84,-114,-136,-61,217,255,32,28427,
15289,-1144,-816,16560,-14,24,148,-61,215,257,32,04466,
15290,-1144,-552,16464,32,95,103,-71,220,257,32,1405,
15291,-1272,-468,16460,100,107,94,-63,210,257,32,04466,
15292,-968,-928,16780,-212,-289,-49,-63,210,257,32,1405,
15293,-1480,-252,16560,-162,-192,328,-63,210,257,32,04466,
15294,-1044,-392,16148,-52,-184,34,-68,212,262,32,23635,
15295,-1336,-752,17108,-179,90,-76,-70,216,258,32,09258,
15296,-796,-1132,16528,-243,108,-57,-70,216,258,32,04466,
15297,-924,-376,15816,44,-3,111,-70,216,258,31,94881,
15298,-1372,-724,16436,-114,181,-23,-68,223,262,32,04466,
15299,-1080,-564,16332,176,105,166,-58,215,257,32,09258,
15300,-1008,-900,16720,-20,-170,45,-59,213,266,31,90089,
15301,-1192,-736,16516,-99,-171,29,-66,217,262,31,94881,
15302,-1156,-416,16184,-44,-166,146,-66,217,262,32,23635,
15303,-1480,-616,16444,-24,130,314,-81,217,255,31,94881,
15304,-1412,-472,16264,46,-311,-158,-70,227,258,32,09258,
15305,-1112,-620,16328,88,-31,-152,-70,227,258,32,09258,
15306,-1024,-492,16492,87,84,419,-70,227,258,32,04466,
15307,-1100,-764,16476,53,97,286,-64,208,263,32,09258,
15308,-1096,-720,16508,71,-23,57,-67,219,256,32,38012,
15309,-1328,-672,16424,160,-436,-19,-67,219,256,32,38012,
15310,-1684,-888,16332,-76,444,472,-70,216,253,32,38012,
15311,-1160,-364,16272,180,-330,-274,-70,216,253,32,1405,
15312,-1444,-836,16420,56,373,198,-76,212,250,32,04466,
15313,-1044,-464,16592,62,210,271,-61,215,260,32,09258,
15314,-1244,-584,16588,2,256,43,-66,212,252,32,28427,
15315,-1064,-768,16712,-102,-386,13,-62,213,261,32,04466,
15316,-1388,-1064,16756,-304,-309,142,-62,213,261,32,04466,
15317,-1292,-584,16280,-326,-253,81,-63,215,262,32,23635,
15318,-1536,-156,16032,17,424,472,-63,215,262,32,09258,
15319,-800,-896,16320,-186,-198,12,-68,204,262,32,04466,
15320,-1396,-380,16348,-81,-8,318,-66,204,257,31,85297,
15321,-1292,-784,16512,-167,-29,429,-66,204,257,32,1405,
15322,-1204,-852,16452,-439,-438,207,-63,204,267,32,23635,
15323,-1260,-760,16228,-223,-17,192,-63,196,257,32,23635,
15324,-1428,-480,16288,221,-80,-49,-58,207,252,32,04466,
15325,-1328,-912,16548,22,312,216,-73,217,262,32,09258,
15326,-1140,-916,16532,-183,20,-3,-73,217,262,31,94881,
15327,-1292,-492,16188,72,190,231,-73,217,262,32,1405,
15328,-1344,-500,16392,135,307,-28,-71,204,260,32,04466,
15329,-1256,-756,16272,165,172,127,-68,207,262,31,94881,
15330,-1380,-656,16204,107,47,241,-68,207,262,32,1405,
15331,-1928,-716,16452,-30,541,168,-68,207,262,32,04466,
15332,-1264,-748,16376,-147,471,325,-63,210,267,32,04466,
15333,-1224,-788,16392,-132,-88,76,-58,212,257,32,04466,
15334,-1576,-492,16188,12,210,154,-70,208,261,32,1405,
15335,-1296,-692,16268,191,80,174,-70,208,261,32,04466,
15336,-1688,-1100,16492,-144,295,331,-67,211,261,32,04466,
15337,-1984,-376,16552,-132,524,577,-50,202,257,32,04466,
15338,-1256,-624,16308,-252,676,383,-58,212,257,32,09258,
15339,-1196,-608,16052,64,-127,-417,-58,212,257,31,94881,
15340,-1408,-844,16484,339,29,430,-58,212,257,32,04466,
15341,-1604,-1120,16632,-37,-323,-123,-59,208,263,31,90089,
15342,-2080,-720,16300,49,312,539,-61,210,255,32,1405,
15343,-1648,-352,16060,397,487,280,-61,210,255,32,28427,
15344,-1812,-668,16188,555,-235,62,-66,212,262,31,94881,
15345,-1480,-968,16468,289,207,453,-66,212,262,32,1405,
15346,-1828,-656,16660,96,140,350,-62,208,253,32,04466,
15347,-1628,-692,16636,135,-17,226,-53,207,267,32,23635,
15348,-1808,-1200,16824,-223,-195,75,-66,210,255,32,04466,
15349,-1652,-748,16460,-230,-169,-97,-72,206,258,32,09258,
15350,-1772,-360,16060,29,-78,-132,-72,206,258,32,38012,
15351,-1472,-572,16228,125,-218,-63,-67,206,256,32,04466,
15352,-2140,-748,16504,-168,122,-4,-67,206,256,32,1405,
15353,-1660,-408,15956,-41,346,17,-64,211,268,32,42804,
15354,-1648,-456,16016,157,143,11,-58,217,260,32,23635,
15355,-2132,-612,16284,116,375,243,-58,217,260,32,09258,
15356,-1956,-560,16324,171,-82,-106,-58,217,260,32,09258,
15357,-1604,-408,16476,694,-72,-471,-64,208,268,32,04466,
15358,-1756,-688,16452,704,346,-1,-59,208,258,32,04466,
15359,-2116,-456,16672,938,695,498,-54,211,266,32,23635,
15360,-1316,652,16900,1251,-231,1,-54,211,266,31,94881,
15361,-2016,628,17940,2338,-422,87,-61,210,257,32,09258,
15362,-1876,1572,18976,1846,-1664,496,-63,207,262,31,94881,
15363,-2920,1080,19152,-188,-2625,669,-59,221,268,32,09258,
15364,-2628,1052,19964,-1120,-5600,768,-59,221,268,31,90089,
15365,-3268,-1136,20688,-2229,-6063,1429,-59,221,268,32,09258,
15366,-1856,-1512,20768,-4068,-7035,1862,-48,223,265,32,28427,
15367,-396,1728,17432,-3340,-9321,3000,-45,202,280,32,1405,
15368,876,700,13580,389,-7087,1906,-45,202,280,32,1405,
15369,-1004,-3356,15236,-1618,-3678,-401,-45,202,280,32,1405,
15370,1300,-1112,15024,-762,-1707,2553,-56,228,300,32,1405,
15371,3336,-2740,15236,-2156,-1487,785,-62,227,303,32,04466,
15372,1144,-2360,15140,-3735,660,1027,-56,223,302,32,04466,
15373,2240,-1612,15156,-2696,2674,2211,-44,219,308,32,23635,
15374,2776,-3652,15600,-4296,678,-90,-44,219,308,32,09258,
15375,1596,-2160,15936,-2817,4447,1060,-42,213,311,32,23635,
15376,1748,-3980,15752,-4440,5934,1826,-48,207,307,32,04466,
15377,4724,-2328,14524,-5758,-2012,-1120,-48,207,307,32,04466,
15378,348,-1008,13664,-3681,-850,972,-26,192,311,32,04466,
15379,1704,-3604,15228,-1599,983,659,-26,192,311,32,1405,
15380,3812,-2236,12608,-709,-2194,779,-21,187,318,32,28427,
15381,-264,-3492,13532,286,-456,1201,-34,182,318,32,09258,
15382,708,-4264,14812,943,1212,-261,-25,191,315,32,04466,
15383,2272,-3556,15004,1398,-364,412,-28,189,315,31,94881,
15384,320,-3068,15116,1239,650,1155,-28,189,315,32,04466,
15385,1384,-3268,16012,1767,1062,691,-34,187,316,32,09258,
15386,1472,-3980,16960,1052,-15,363,-34,187,316,32,23635,
15387,312,-2916,16592,998,803,780,-22,199,322,32,04466,
15388,1172,-2788,16600,1211,398,1275,-22,196,310,32,23635,
15389,1176,-3040,16368,1173,-8,1000,-22,196,310,32,1405,
15390,596,-2688,16092,1224,293,244,-22,196,310,32,23635,
15391,908,-2852,16364,1180,394,1287,-19,200,316,32,1405,
15392,1572,-3480,16496,1023,1650,1750,-15,202,305,32,04466,
15393,1252,-3440,16880,418,1221,1970,-24,206,301,32,09258,
15394,1416,-2152,16924,487,-1234,2750,-24,206,301,32,09258,
15395,-652,-2988,16948,-90,-57,1914,-26,206,303,32,23635,
15396,616,-1756,16712,256,-361,1798,-19,203,303,32,23635,
15397,548,-2532,16612,464,-1786,2434,-16,216,308,32,04466,
15398,24,-3136,17952,-357,-2604,1696,-16,216,308,32,23635,
15399,-604,-2628,16636,-372,-719,1484,-16,216,308,32,38012,
15400,-44,-2276,16464,41,1522,1756,-20,204,300,32,09258,
15401,1528,-2532,16120,-152,1353,1944,-19,208,303,32,04466,
15402,892,-2176,14440,245,492,3539,-19,208,303,31,90089,
15403,572,-2068,15492,1071,-313,4424,-19,208,303,32,04466,
15404,868,-2796,15648,874,155,5187,-20,210,295,32,04466,
15405,1248,-3064,15400,239,-1613,4139,-20,220,300,32,09258,
15406,1316,-1736,16532,-44,-2975,5070,-24,219,298,32,04466,
15407,-272,-724,16412,1426,-1209,7315,-36,221,291,32,04466,
15408,812,-2340,16936,1055,-914,6939,-36,221,291,32,1405,
15409,624,-2356,16740,1451,-401,5439,-45,220,297,32,04466,
15410,-624,-1868,16404,1343,729,6758,-34,221,301,32,1405,
15411,-1188,-3100,16384,197,2437,5866,-34,221,301,32,28427,
15412,-668,-2880,17240,56,2782,4113,-34,234,296,32,09258,
15413,-864,-1688,16080,849,2586,5265,-34,234,296,32,1405,
15414,-1380,-3020,16200,-36,3075,5070,-25,236,300,32,04466,
15415,-412,-2100,15868,140,1405,3103,-25,236,300,32,04466,
15416,-1360,-1848,15700,746,685,3988,-14,240,296,32,1405,
15417,-2192,-2788,16416,-136,1486,2556,-20,236,302,32,23635,
15418,-1380,-1820,16564,575,1311,1530,-20,236,302,32,04466,
15419,-1844,-1748,17024,509,1115,1649,-15,241,292,32,1405,
15420,-2700,-2892,18376,-1048,1299,967,-10,236,292,32,23635,
15421,-2416,-2844,18120,-1610,1493,-574,-7,238,297,32,04466,
15422,-2176,-1236,16516,-928,1092,274,-10,254,300,32,09258,
15423,-2264,-2180,15880,-424,982,787,-10,254,300,32,09258,
15424,-1860,-2084,15868,-853,-338,567,-10,254,300,32,28427,
15425,-3120,-2884,15964,-1173,142,565,-12,246,290,32,04466,
15426,-2968,-3116,16332,-1540,1340,639,-6,245,301,32,23635,
15427,-3240,-3056,16464,-1523,3246,242,-6,245,301,32,04466,
15428,-3448,-2900,15932,-1239,3262,-1450,-6,245,301,32,1405,
15429,-3176,-3072,15660,-1529,3139,-1931,5,238,292,32,09258,
15430,-3652,-2984,15932,-1916,3386,-1950,10,228,297,32,1405,
15431,-3732,-1968,15412,-362,3386,-974,12,241,280,31,94881,
15432,-3604,-3392,15412,-926,2832,-1984,12,241,280,32,09258,
15433,-3424,-3512,15388,-1568,1919,-2323,22,220,275,32,1405,
15434,-3840,-3480,15176,-1499,1609,-1535,24,234,283,32,1405,
15435,-4344,-3712,15012,-1369,1471,-2341,26,224,286,32,04466,
15436,-4024,-3460,15092,-613,1734,-2225,26,224,286,32,1405,
15437,-3684,-3652,15064,-127,475,-1526,26,224,286,32,09258,
15438,-4716,-4068,15252,-348,-176,-2723,34,221,286,32,28427,
15439,-5508,-4252,15444,-119,997,-3361,30,215,295,32,09258,
15440,-3996,-3076,14252,1444,1989,-3451,30,215,295,32,09258,
15441,-3800,-4192,14656,894,53,-3079,33,212,287,32,1405,
15442,-3784,-3612,14120,523,-555,-2818,33,212,287,32,1405,
15443,-3228,-3060,13816,1788,184,-3384,31,224,281,31,94881,
15444,-2992,-4068,14544,2112,96,-2845,31,208,291,32,04466,
15445,-2964,-4192,15604,1446,-1015,-2518,34,203,288,32,04466,
15446,-3460,-3948,16232,1922,-312,-1997,34,219,288,32,04466,
15447,-2572,-4456,16360,1414,-331,-1662,34,219,288,32,1405,
15448,-2548,-4120,17048,567,-970,-943,38,207,285,32,04466,
15449,-3260,-3492,17400,556,-335,-107,38,207,285,32,1405,
15450,-3120,-3980,17076,-167,-1086,-713,35,207,290,32,1405,
15451,-3308,-3884,17076,-845,-1167,-3,30,199,282,32,1405,
15452,-3280,-3488,16668,-148,-1965,575,30,199,282,32,28427,
15453,-3324,-4220,16708,280,-769,376,38,207,290,32,09258,
15454,-3340,-3600,15756,-261,-1288,-359,29,213,281,31,85297,
15455,-3316,-4080,16368,-1824,-2373,-1840,40,212,292,32,23635,
15456,-3456,-2412,16216,-782,-1751,285,19,203,288,32,28427,
15457,-3864,-3968,15676,-1098,-769,2,19,203,288,32,04466,
15458,-2400,-4128,14212,-747,699,-1193,19,203,288,32,09258,
15459,-2300,-2232,11580,2052,2401,1228,19,203,298,32,04466,
15460,-1092,-2384,8244,3120,4106,730,29,203,286,32,23635,
15461,1044,-1264,5540,5660,5976,3538,29,203,286,32,28427,
15462,2180,-1628,6676,3387,2980,5476,29,203,286,32,09258,
15463,856,2672,6816,6043,1233,6715,36,216,268,32,1405,
15464,-3052,-1992,11912,2805,2838,5290,42,229,268,31,90089,
15465,-5164,3128,14360,6009,821,5721,39,229,266,32,09258,
15466,-8144,1716,20628,9926,2317,8414,39,229,266,32,28427,
15467,-8748,-3748,25732,5144,-132,4366,26,240,271,32,28427,
15468,-7620,-2032,24944,2291,-2372,2052,38,249,270,32,1405,
15469,-8044,-2648,23700,-1244,-3808,202,31,245,278,31,85297,
15470,-6332,-584,20676,-1772,-4352,-2299,31,245,278,32,04466,
15471,-5548,-380,18804,-1558,-3895,-1858,31,245,278,32,23635,
15472,-5588,-1692,18924,-3408,-2508,-1417,19,234,293,32,23635,
15473,-4916,720,16608,-1197,11,-951,8,216,301,32,04466,
15474,-3008,-684,15808,-1274,172,-1022,8,216,301,32,04466,
15475,-3864,-2040,17344,-2461,-284,-1152,5,212,295,32,1405,
15476,-4244,-844,17440,-2411,382,792,5,212,295,32,04466,
15477,-2292,-188,15648,-1718,-1284,-999,7,215,295,32,28427,
15478,-4524,268,16044,498,-28,1068,5,204,297,31,94881,
15479,-3412,-1256,15696,-458,84,-41,6,198,286,32,28427,
15480,-3260,-244,15880,1362,-82,643,6,203,288,32,09258,
15481,-3552,-1360,16056,441,576,408,6,203,288,32,09258,
15482,-3056,-452,16136,342,-200,46,11,211,291,31,94881,
15483,-3632,-532,15912,1427,233,902,11,211,291,32,09258,
15484,-3460,-1060,15700,754,217,135,7,207,295,32,1405,
15485,-3656,-496,15824,1133,602,-67,10,207,300,32,09258,
15486,-3336,-268,15700,1166,423,-237,10,207,300,32,1405,
15487,-4228,-340,16308,1082,550,385,15,212,290,32,38012,
15488,-3576,-540,16524,1129,238,175,5,202,292,32,04466,
15489,-4104,-1044,16740,-57,418,286,24,213,301,32,28427,
15490,-3700,-8,16156,171,-290,19,24,213,301,32,09258,
15491,-4044,-680,16464,165,227,382,14,211,296,32,04466,
15492,-3544,-148,15920,-10,-345,-72,14,211,296,32,1405,
15493,-3700,-260,15872,-111,-356,201,3,216,288,32,38012,
15494,-3652,-392,15832,-324,-439,-49,10,215,295,32,04466,
15495,-3984,468,15576,412,132,9,10,215,295,32,09258,
15496,-3448,-72,15772,217,-169,41,10,215,295,32,38012,
15497,-3692,-672,16044,195,48,221,14,211,303,32,28427,
15498,-3768,-176,16240,171,-115,36,20,223,295,32,04466,
15499,-3952,-516,16384,-408,-157,14,10,220,295,32,09258,
15500,-3628,212,15980,92,-25,-82,10,220,295,32,04466,
15501,-3576,-352,15904,283,-311,249,16,219,291,32,09258,
15502,-4104,-552,16156,-351,-172,-400,16,208,301,31,94881,
15503,-4008,284,16036,431,241,257,12,217,287,32,23635,
15504,-3536,-112,15520,-164,-278,-288,12,217,287,32,23635,
15505,-3928,-176,16084,-125,387,-238,12,217,287,32,09258,
15506,-3364,232,15596,524,-151,357,11,229,308,32,23635,
15507,-3756,-680,16272,219,-110,-32,7,215,295,32,04466,
15508,-3732,88,16236,325,-15,97,14,216,293,32,04466,
15509,-3760,-388,16212,-253,-75,254,14,216,296,32,09258,
15510,-3588,304,15832,380,209,192,14,216,296,32,04466,
15511,-4024,-132,16060,318,334,118,14,216,301,32,1405,
15512,-3380,192,15824,353,-329,87,19,224,298,32,38012,
15513,-4036,-168,15988,0,109,-215,19,224,298,32,09258,
15514,-3572,-104,15888,222,-253,185,14,232,291,31,90089,
15515,-4156,-280,16092,-308,58,-93,14,232,291,32,1405,
15516,-3888,400,15748,44,180,-199,3,224,296,32,1405,
15517,-3336,16,16028,155,-191,-186,3,224,296,32,09258,
15518,-3936,-116,16016,144,74,-125,15,217,297,32,1405,
15519,-3532,-92,16052,-109,-303,38,20,225,295,32,42804,
15520,-4192,68,16104,55,138,-21,20,225,295,32,04466,
15521,-3496,160,15768,-55,-211,-168,10,217,302,32,09258,
15522,-3792,312,16076,298,-261,-191,12,223,292,31,94881,
15523,-4040,-124,16324,203,163,141,15,223,297,32,1405,
15524,-3468,-36,15900,45,-255,-176,15,223,297,32,1405,
15525,-3660,316,16240,492,-283,-162,21,227,298,32,09258,
15526,-4004,-244,16932,238,-430,-531,21,227,298,32,28427,
15527,-4264,396,17696,1381,-254,-390,8,229,308,32,38012,
15528,-4592,208,19692,1800,-199,-549,7,233,300,32,23635,
15529,-5204,-1780,20748,-597,600,-1231,7,233,300,32,23635,
15530,-4728,-404,20272,-360,-37,-1361,7,233,300,32,28427,
15531,-5984,496,20000,660,-303,-1214,12,238,290,32,1405,
15532,-4504,-1432,19768,-1069,-978,-2722,22,244,292,32,23635,
15533,-4752,-524,19572,-1667,-1329,-1928,19,242,296,32,04466,
15534,-4924,172,17484,-573,-809,-1415,19,242,296,32,23635,
15535,-3416,-500,15488,-926,-444,-1717,28,259,287,32,1405,
15536,-2772,-20,13860,-1113,-1471,-1959,28,262,295,32,28427,
15537,-4580,-588,14696,-1331,1311,-1094,28,254,285,32,38012,
15538,-2548,-712,14036,-1217,1254,-1739,28,254,285,32,23635,
15539,-1884,-828,13572,-2629,-918,-1051,28,254,285,32,28427,
15540,-3924,-256,14412,-3352,406,-948,21,258,291,32,09258,
15541,-2552,-208,13280,-1639,1083,-261,22,257,295,32,09258,
15542,-2052,-408,12480,-1322,-252,127,22,257,295,32,23635,
15543,-2932,-1340,13764,-1742,-242,-749,24,245,278,32,1405,
15544,-2976,-612,13388,-956,1546,-540,24,245,278,32,1405,
15545,-1932,-1448,13584,-1291,66,-179,20,246,282,32,1405,
15546,-2892,-1160,14356,-285,314,112,39,248,278,32,38012,
15547,-2964,-1268,14680,423,-76,-345,33,236,282,32,42804,
15548,-3428,-1980,15760,368,-240,32,40,244,282,32,1405,
15549,-3648,-1372,16112,514,-271,208,40,244,282,32,04466,
15550,-3532,-1636,15832,467,-224,-33,38,238,285,32,04466,
15551,-2820,-1772,15240,43,-1087,-407,38,238,285,32,1405,
15552,-3460,-1612,15828,264,-1157,-418,31,242,281,32,23635,
15553,-4164,-1112,16220,1309,-313,639,31,242,281,32,04466,
15554,-3688,-2388,16228,-401,132,-8,29,255,288,32,1405,
15555,-2924,-1124,15656,255,-739,358,29,255,288,32,1405,
15556,-4044,-1424,16264,479,70,687,28,249,290,32,1405,
15557,-3428,-1948,15968,-375,337,-182,26,250,276,32,1405,
15558,-3136,-1860,15800,-509,-164,-302,26,250,276,32,04466,
15559,-3744,-532,15972,569,-95,411,28,246,285,32,38012,
15560,-3156,-1836,15848,288,-311,208,30,254,282,32,04466,
15561,-3420,-2112,15896,-280,-5,-342,35,257,282,32,23635,
15562,-3304,-1344,15836,-145,-413,-2,35,252,285,32,04466,
15563,-3564,-1364,16188,714,-53,160,35,252,285,32,09258,
15564,-3524,-2160,16412,-216,30,-294,35,252,285,32,1405,
15565,-3396,-1296,16012,-91,157,-11,24,242,288,32,04466,
15566,-3012,-1380,15632,388,112,299,25,246,290,32,28427,
15567,-3560,-1568,15924,185,200,-58,25,246,290,32,28427,
15568,-3264,-1624,16184,-81,-145,73,25,246,290,32,09258,
15569,-3716,-1340,16368,-62,65,203,30,246,285,32,09258,
15570,-3292,-1472,15944,570,132,45,21,245,288,32,09258,
15571,-3460,-1744,16160,-41,-258,-76,33,244,277,32,1405,
15572,-3620,-1560,16276,-60,-161,83,36,250,288,32,04466,
15573,-3428,-1904,16320,-180,-16,-164,36,250,288,32,1405,
15574,-3216,-1504,15772,-173,-198,33,25,249,287,32,23635,
15575,-3452,-1504,15824,99,4,32,24,245,286,32,1405,
15576,-3392,-1596,15832,35,208,-37,24,245,286,32,23635,
15577,-3144,-1552,15808,105,-45,-163,29,253,286,32,23635,
15578,-3480,-1872,16104,-278,-165,-177,29,253,286,32,04466,
15579,-3648,-1272,15944,143,46,-31,38,249,290,32,23635,
15580,-3568,-1472,16028,90,116,-101,26,248,283,32,09258,
15581,-3416,-1476,15920,2,-93,-30,25,254,285,32,23635,
15582,-3576,-1472,15972,151,160,77,25,252,285,32,28427,
15583,-3532,-1468,16040,-25,61,11,25,252,285,32,28427,
15584,-3440,-1420,16052,293,55,130,33,241,285,32,1405,
15585,-3432,-1864,16188,4,-176,58,33,241,285,32,38012,
15586,-3744,-1504,16048,-275,-237,-188,31,253,283,32,23635,
15587,-3452,-1236,15980,-76,-436,-43,31,253,283,32,42804,
15588,-3556,-1480,16064,-111,-287,13,30,236,290,32,47596,
15589,-3564,-1388,16256,52,55,191,30,236,290,32,09258,
15590,-3244,-1832,15956,26,-34,-29,29,250,288,32,04466,
15591,-3420,-1516,16184,-59,-74,13,35,241,282,32,09258,
15592,-3660,-1812,15892,-74,220,-22,35,241,282,32,04466,
15593,-3036,-1324,15676,251,-31,225,28,249,280,32,38012,
15594,-3508,-1760,16100,62,130,-9,29,250,283,32,38012,
15595,-3416,-1480,16144,149,48,-55,34,248,278,32,1405,
15596,-3572,-1628,16256,70,174,63,28,249,275,32,47596,
15597,-3420,-1600,16124,-168,-38,-181,28,249,275,32,09258,
15598,-3592,-1668,16168,-124,17,-113,28,249,275,32,23635,
15599,-3408,-1408,15948,-107,-242,-14,26,255,288,32,1405,
15600,-3608,-1588,15948,14,-66,29,24,255,278,32,04466,
15601,-3408,-1600,15836,71,-97,-42,35,252,285,32,1405,
15602,-3324,-1580,16064,-48,-135,47,35,252,285,32,28427,
15603,-3544,-1788,16060,-31,5,-49,33,246,285,32,23635,
15604,-3492,-1600,15836,168,17,29,29,253,286,32,1405,
15605,-3752,-1408,15804,246,-5,144,31,245,288,32,42804,
15606,-3424,-1552,15796,388,154,135,31,245,288,32,1405,
15607,-3300,-1804,15984,51,-278,-43,31,245,288,32,28427,
15608,-3760,-1264,16144,-70,-179,-65,29,253,286,32,1405,
15609,-3844,-1324,16268,483,101,209,21,255,283,32,42804,
15610,-3204,-1824,16056,-177,-373,-150,21,255,283,32,1405,
15611,-3692,-1372,16116,137,171,60,26,248,286,32,38012,
15612,-3400,-1428,15944,-85,-30,-47,26,248,286,32,1405,
15613,-3524,-1244,16048,184,61,-6,29,250,286,32,47596,
15614,-3388,-1760,16236,-88,-124,-36,31,248,283,32,42804,
15615,-3696,-1284,16024,189,168,246,30,246,280,32,1405,
15616,-3564,-1560,15880,-301,38,71,30,246,280,32,04466,
15617,-3192,-1464,15840,-97,-194,20,29,253,273,32,42804,
15618,-3444,-1596,16020,92,-190,191,33,249,275,32,28427,
15619,-3584,-1300,16088,118,-210,76,33,249,275,32,1405,
15620,-3364,-1472,16012,81,-223,-119,31,248,273,32,1405,
15621,-3620,-1448,15836,4,-161,-209,31,248,273,32,28427,
15622,-3556,-1516,16096,166,21,183,34,245,276,32,28427,
15623,-3580,-1648,15988,-147,187,-325,34,245,276,32,23635,
15624,-3184,-1304,15852,78,-120,-223,39,242,278,32,09258,
15625,-3256,-1792,15952,36,-58,-78,33,246,280,32,42804,
15626,-3288,-1540,16076,21,-221,43,33,246,280,32,38012,
15627,-3636,-1284,15980,297,12,140,30,246,287,32,04466,
15628,-3380,-1928,16148,-97,-80,0,30,246,287,32,04466,
15629,-3484,-1304,16024,279,2,49,38,252,280,32,04466,
15630,-3416,-1704,16096,-216,9,-285,35,246,280,32,09258,
15631,-3392,-1496,16116,-16,-249,-182,35,246,280,32,09258,
15632,-3400,-1608,16064,11,-214,-261,35,246,280,32,1405,
15633,-3428,-1364,16156,16,-464,32,28,249,297,32,28427,
15634,-3552,-1360,16228,89,-282,-117,20,249,285,32,1405,
15635,-2936,-1376,15932,192,-482,73,31,245,283,32,28427,
15636,-3228,-1704,16048,-80,-579,-335,31,245,283,32,04466,
15637,-3556,-1512,16064,334,-246,-596,25,246,290,32,38012,
15638,-3112,-1120,16036,1097,101,-592,16,253,298,32,38012,
15639,-3132,-1572,15784,845,89,-549,31,255,291,32,42804,
15640,-2680,-1560,15920,213,-597,-965,31,255,291,32,38012,
15641,-3188,-1536,16940,812,-2269,-1086,31,255,291,32,38012,
15642,-3596,-1008,17444,42,-5160,-2659,25,259,285,32,23635,
15643,-3092,-1724,18496,-510,-8485,-4085,31,245,283,32,1405,
15644,-2444,92,18108,1735,-13170,-5811,31,245,283,32,04466,
15645,-860,-1044,17552,1688,-16515,-5793,-15,244,295,31,94881,
15646,1288,-984,16376,2483,-19690,-5141,-15,244,295,32,38012,
15647,2516,-1036,15320,3545,-19937,-1954,-35,238,300,32,42804,
15648,3468,-1756,15640,1319,-22471,-2246,-82,253,306,32,28427,
15649,3888,-672,14776,2996,-20269,-3540,-82,253,306,32,23635,
15650,6600,300,13476,2624,-16138,-2569,-82,253,306,32,1405,
15651,9112,96,11912,1114,-18333,-2430,-143,255,311,32,1405,
15652,8504,1240,13132,189,-15537,-1985,-169,266,298,32,1405,
15653,10516,1248,11712,-415,-14553,-1462,-169,266,298,32,04466,
15654,12044,20,12280,-2479,-10946,-2372,-222,269,263,32,38012,
15655,13260,712,9692,-1377,-10165,-1613,-222,269,263,32,42804,
15656,14104,-72,8888,-1676,-7068,307,-238,274,256,32,23635,
15657,14944,-284,7216,-1878,-5340,210,-244,270,250,32,38012,
15658,13596,1016,7232,-739,-2638,-216,-262,265,247,32,09258,
15659,13704,-456,7652,281,-49,1124,-264,262,250,32,42804,
15660,14468,836,6892,-834,92,-64,-264,262,250,32,38012,
15661,14128,-144,7992,-929,2213,-141,-261,258,246,32,1405,
15662,13580,384,8772,-1253,2103,21,-261,258,246,32,28427,
15663,14136,188,8672,-993,1436,282,-250,266,253,32,28427,
15664,13804,-324,9380,-2320,932,561,-258,266,248,32,1405,
15665,13644,856,8768,-1045,839,383,-258,266,248,32,38012,
15666,13276,-188,9068,-323,983,143,-258,250,253,32,38012,
15667,13368,-600,9528,-1244,796,42,-247,252,267,32,42804,
15668,13516,136,8920,-469,785,220,-247,257,252,32,23635,
15669,13624,20,9256,-119,163,-146,-249,249,262,32,42804,
15670,13332,-476,10516,-330,866,251,-249,249,262,32,28427,
15671,13740,-220,9448,-621,382,280,-249,249,262,32,38012,
15672,13176,168,9232,178,487,40,-249,257,260,32,1405,
15673,13004,-576,9700,-245,1189,257,-259,252,262,32,28427,
15674,13476,-540,9632,-800,1050,66,-259,252,262,32,28427,
15675,13308,-384,9616,-599,621,153,-259,252,262,32,09258,
15676,13324,-24,9420,686,1107,349,-257,252,270,32,23635,
15677,12716,-304,9932,638,722,824,-254,252,265,32,38012,
15678,12956,-820,10368,-23,480,777,-249,249,275,32,23635,
15679,13176,-572,9948,-173,-237,489,-249,249,275,32,1405,
15680,12544,-340,10376,24,-44,127,-249,249,275,32,23635,
15681,13048,-792,9904,-295,257,-187,-241,249,262,32,42804,
15682,12820,-412,9968,-333,325,-220,-244,241,267,32,38012,
15683,12852,-420,10136,-337,251,-68,-244,241,267,32,28427,
15684,13048,-640,9592,-670,567,-268,-244,241,267,32,23635,
15685,12944,232,9464,-203,381,-47,-239,249,265,32,42804,
15686,13268,100,9856,185,1560,57,-244,244,275,32,04466,
15687,13428,-464,9816,460,-72,195,-239,254,277,32,1405,
15688,12848,-1012,10824,-506,695,5,-245,253,278,32,28427,
15689,12768,-696,10440,-370,963,-140,-245,253,278,32,09258,
15690,12724,-452,10424,146,584,437,-240,248,273,32,23635,
15691,12472,-660,10616,-163,648,300,-249,238,277,32,1405,
15692,12720,-528,10236,-347,276,-315,-249,238,277,32,28427,
15693,12728,-680,9920,-207,88,-446,-239,244,267,32,1405,
15694,12784,-1072,10292,157,80,-223,-239,244,267,32,23635,
15695,12616,-648,10032,648,368,185,-231,244,272,32,04466,
15696,12432,-632,10340,378,488,-123,-231,244,272,32,42804,
15697,12524,-180,10908,634,337,-54,-238,242,273,32,28427,
15698,12564,-124,10924,205,317,173,-230,240,278,32,42804,
15699,12708,-204,10756,282,905,75,-230,240,278,32,28427,
15700,12696,-732,10480,436,409,430,-241,254,275,32,38012,
15701,12588,-696,10696,377,146,326,-226,233,267,32,23635,
15702,12268,-592,10756,203,22,123,-231,246,280,32,42804,
15703,12232,-96,10596,460,44,-94,-230,245,273,32,28427,
15704,12520,-552,10716,285,-55,-244,-230,245,273,32,47596,
15705,12840,-140,10288,758,-364,-70,-230,245,273,32,28427,
15706,12588,-996,11288,199,-654,-195,-231,252,277,32,23635,
15707,12580,-444,11084,-46,-49,-181,-231,249,275,32,23635,
15708,12540,-436,10968,-690,427,72,-231,249,275,32,38012,
15709,12496,36,10212,-291,877,44,-227,250,266,32,28427,
15710,12708,-732,9896,-499,1461,599,-234,254,275,32,28427,
15711,11996,-548,11176,643,3804,1939,-225,250,276,32,09258,
15712,12564,-1060,11744,448,6107,2079,-217,248,283,32,42804,
15713,11788,-788,11052,-3738,10967,-101,-217,248,283,32,38012,
15714,10368,672,11188,-4734,18779,751,-217,248,283,32,1405,
15715,8908,364,9584,-5220,26481,5552,-191,236,302,32,38012,
15716,8580,-2624,10332,-5923,26052,-263,-136,232,323,32,28427,
15717,4924,-1652,12472,-4439,30607,5417,-86,215,332,32,42804,
15718,5164,-1984,13060,-853,31060,8611,-86,215,332,32,38012,
15719,-12,-1708,13020,1971,29106,7837,-44,211,323,32,28427,
15720,-3628,-3332,15248,228,23545,7928,7,225,302,32,1405,
15721,-6712,996,16416,3588,17282,10860,50,236,287,32,38012,
15722,-8232,-2632,16680,2297,12799,4566,50,236,287,32,23635,
15723,-9620,-3008,18216,-718,9825,2669,50,236,287,32,23635,
15724,-9844,-1440,16756,622,5360,1774,86,252,255,32,1405,
15725,-9564,-2744,16548,932,3576,-556,87,250,243,32,38012,
15726,-9596,-2600,16680,-556,2159,-1081,87,250,243,32,1405,
15727,-8684,-1920,15244,-98,1133,-644,99,252,242,32,1405,
15728,-7860,-1376,14064,1132,-409,-1041,99,252,242,32,47596,
15729,-8088,-2148,14468,-914,-1474,-1222,99,246,237,32,42804,
15730,-7908,-1384,14260,-500,-2492,-1236,92,237,246,32,23635,
15731,-8160,-1332,14884,1144,-1912,-340,98,248,241,32,47596,
15732,-7420,-2220,14460,100,-929,-282,86,254,240,32,42804,
15733,-7684,-1664,14116,-429,-777,-323,86,254,240,32,47596,
15734,-7888,-1456,14360,-310,-344,-205,96,244,245,32,47596,
15735,-7640,-1948,14020,6,-509,273,96,244,245,32,1405,
15736,-7688,-1828,13764,154,-792,167,98,248,251,32,23635,
15737,-7788,-2172,14028,-152,-402,-110,87,234,243,32,23635,
15738,-7880,-1904,14336,378,292,279,87,234,243,32,47596,
15739,-7820,-1496,14416,-107,-55,-223,89,238,245,32,04466,
15740,-8252,-1420,14984,241,566,178,96,233,242,32,28427,
15741,-7624,-1820,14516,-55,632,4,90,245,241,32,1405,
15742,-7280,-1620,14068,181,71,29,90,245,241,32,42804,
15743,-7380,-1636,14132,338,-512,-47,92,234,241,32,04466,
15744,-7168,-1960,14228,510,-306,120,92,234,241,32,38012,
15745,-7676,-1972,14580,277,-633,36,91,244,242,32,28427,
15746,-7628,-1528,14168,205,-799,43,89,244,242,32,38012,
15747,-8032,-1056,14688,789,-841,-42,89,244,242,32,38012,
15748,-7740,-1596,14820,-72,-1133,-220,89,244,242,32,28427,
15749,-7716,-1364,14956,110,-981,4,89,249,250,32,1405,
15750,-7392,-1944,14836,-117,-1662,349,85,242,243,32,28427,
15751,-7384,-1580,14632,-312,-1084,169,90,240,248,32,42804,
15752,-7028,-1812,14048,-43,-1304,683,90,240,248,32,23635,
15753,-6696,-2244,14164,-1281,-1034,891,90,240,248,32,23635,
15754,-6704,-1552,14252,-177,-895,646,78,241,247,32,38012,
15755,-6660,-2612,13888,-495,-1341,1775,87,242,251,32,28427,
15756,-7212,-1300,14472,-1311,-1976,1224,87,242,251,32,28427,
15757,-7184,-1168,15700,-1249,-2104,928,87,242,251,32,42804,
15758,-6792,-1704,15552,-804,-1396,936,72,234,253,32,1405,
15759,-7108,-1336,16148,-829,-750,211,75,250,253,32,38012,
15760,-6532,-2072,15488,-598,420,-9,67,232,253,32,1405,
15761,-6100,-2236,15192,86,1007,1030,67,232,261,32,38012,
15762,-6084,-2400,15188,-437,897,745,67,232,261,32,1405,
15763,-6480,-2268,15216,-228,1003,995,81,246,260,32,42804,
15764,-6408,-2536,15060,6,1693,1230,82,240,263,32,38012,
15765,-5920,-1248,14108,197,311,908,82,240,263,32,38012,
15766,-6664,-1496,14552,-38,-1285,1065,67,242,258,32,47596,
15767,-6628,-1584,14492,-322,-935,296,67,242,258,32,42804,
15768,-6396,-2052,14368,-455,-750,491,72,245,256,32,38012,
15769,-6656,-1840,14876,-277,-290,655,72,245,256,32,42804,
15770,-6692,-1428,15124,831,878,489,70,234,258,32,38012,
15771,-6328,-2004,14468,274,1817,128,70,234,258,32,23635,
15772,-6752,-2268,15140,-38,-3,963,78,246,255,32,38012,
15773,-6776,-1848,14540,80,143,732,77,245,258,32,1405,
15774,-6948,-1476,14720,-98,-66,845,77,245,258,32,57181,
15775,-7120,-1636,14868,18,815,115,78,246,250,32,23635,
15776,-6768,-1980,14420,233,1792,622,78,246,250,32,23635,
15777,-6724,-1752,14760,-216,3865,-59,86,252,250,32,23635,
15778,-8472,-3644,12824,852,2414,901,86,252,250,32,38012,
15779,-7344,-1824,15048,1360,1491,757,85,245,241,32,04466,
15780,-7600,-1264,14908,1245,2701,562,89,254,237,32,47596,
15781,-8020,-2168,13976,-756,4635,421,89,254,237,32,28427,
15782,-8340,-1528,13144,-1083,6481,1236,90,258,243,32,04466,
15783,-8972,-480,14100,243,1417,2092,86,265,240,32,42804,
15784,-8768,-816,13844,446,1059,-139,95,269,236,32,57181,
15785,-9112,-400,13560,-1460,-3245,796,99,259,227,32,38012,
15786,-9268,-1032,14364,533,-4400,1174,99,259,227,32,09258,
15787,-8696,-1420,14000,-55,-1318,172,99,259,227,32,1405,
15788,-7268,-912,13428,-1462,-629,341,99,252,245,32,38012,
15789,-8624,-912,12740,-1221,-1133,1572,90,263,241,32,47596,
15790,-9284,-1804,13656,-1146,1730,539,98,266,233,32,23635,
15791,-8468,-2256,14796,-182,2580,694,98,266,233,32,23635,
15792,-8732,-512,13260,-1047,-33,765,101,252,240,32,42804,
15793,-9600,104,14380,1861,70,1345,87,253,243,32,28427,
15794,-8440,-1980,12880,-521,-1073,-275,92,263,241,32,38012,
15795,-9320,-1480,13052,-890,3726,-600,92,263,241,32,23635,
15796,-8980,-1776,13216,-3529,3839,1808,92,263,241,32,42804,
15797,-9420,-1200,13848,138,3323,1496,95,261,233,32,38012,
15798,-9412,-1416,13520,258,1647,-554,101,265,227,32,23635,
15799,-9204,-1384,14340,1358,-1059,-1133,101,265,227,32,28427,
15800,-10036,-1736,14980,964,-6853,-1626,96,259,235,32,38012,
15801,-9376,-2484,14796,100,-4581,-1132,96,259,235,32,42804,
15802,-9216,-924,12444,-3388,-2749,-364,95,261,238,32,38012,
15803,-8252,-144,13196,-845,-1119,100,92,253,243,32,42804,
15804,-7952,-1100,14308,1401,-1138,-747,92,253,243,32,47596,
15805,-7596,-1096,14288,-1671,-2134,993,92,253,243,32,38012,
15806,-8360,-1832,12600,-328,-478,826,89,257,245,32,28427,
15807,-7372,-1592,14408,791,-383,375,94,252,240,32,38012,
15808,-8120,-1676,14952,-496,-1176,567,94,252,240,32,1405,
15809,-8296,-1428,14264,-348,-823,-254,82,263,246,32,23635,
15810,-7044,-932,14772,1021,-956,-454,82,263,246,32,42804,
15811,-7372,-544,13380,-1284,-1629,-36,86,259,257,32,04466,
15812,-7544,-1144,14120,-1449,-898,653,82,248,253,32,38012,
15813,-7368,-1096,14728,-99,-1231,386,71,254,255,32,42804,
15814,-7176,-3016,16272,-342,-4243,-589,80,248,253,32,28427,
15815,-7788,-2392,13472,-2308,-4632,-227,80,248,253,32,23635,
15816,-3964,-2900,21940,-2817,-16919,-1022,80,250,266,32,42804,
15817,-5292,-4664,22528,-2564,-32768,-4733,80,250,266,32,38012,
15818,-5840,816,13208,-213,-31236,-1959,2,233,305,32,38012,
15819,336,-968,18968,2899,-32692,-3663,-47,232,321,32,42804,
15820,-176,-7380,21052,3462,-32768,-13690,-47,232,321,32,23635,
15821,628,-544,8408,342,-20940,-8759,-47,232,321,32,28427,
15822,9512,-4124,20208,-597,-24437,-8513,-156,253,301,32,38012,
15823,6904,-772,11200,2062,-20945,-11250,-191,259,302,32,1405,
15824,10376,-340,9872,-3003,-13823,-4511,-211,265,275,32,42804,
15825,12128,924,9748,-5197,-9927,-3216,-211,265,275,32,38012,
15826,10912,-204,6840,-4108,-5686,-2887,-211,265,275,32,42804,
15827,13476,-196,11232,-6123,-6108,736,-250,258,276,32,1405,
15828,12792,-1600,8348,-3655,-3479,-1060,-248,240,256,32,42804,
15829,12756,-332,8244,-3076,-983,-380,-248,240,256,32,1405,
15830,13008,-904,8360,-4323,-873,125,-248,240,256,32,38012,
15831,13216,-1592,8212,-3685,-188,-504,-259,238,257,32,38012,
15832,13148,-1160,8440,-1545,1175,-605,-257,236,260,32,42804,
15833,13520,-1940,9672,-1328,1524,-471,-253,240,256,32,47596,
15834,13176,-2196,9432,-2457,1581,-983,-253,240,256,32,1405,
15835,13424,-1008,9768,-2637,2438,-81,-250,224,261,32,57181,
15836,13316,-1032,9576,-1084,1884,-133,-253,216,263,32,42804,
15837,12776,-1460,9844,-1986,2466,254,-239,220,265,32,42804,
15838,12680,-1928,9764,-3855,2942,1173,-239,220,265,32,42804,
15839,12668,-2396,10112,-2219,2983,230,-239,220,265,32,38012,
15840,12600,-1792,9800,-2185,2761,831,-244,217,277,32,42804,
15841,12428,-1808,9740,-1516,3002,1182,-236,204,277,32,42804,
15842,12676,-2584,11776,-1336,1790,906,-236,210,277,32,42804,
15843,12012,-3120,10872,-313,2313,-626,-224,202,280,32,42804,
15844,11944,-2492,10896,106,2353,-1005,-224,202,280,32,1405,
15845,12024,-2312,11112,377,1905,-1025,-217,198,286,32,42804,
15846,11676,-1876,10652,-360,2531,-109,-215,208,283,32,47596,
15847,12152,-2896,12036,-484,1543,-230,-215,208,283,32,42804,
15848,11736,-1976,11392,-217,1530,316,-216,210,295,32,1405,
15849,11864,-2384,12428,-104,657,423,-216,210,295,32,28427,
15850,11256,-2612,11512,-268,792,339,-221,207,285,32,42804,
15851,11252,-2752,11668,-690,499,312,-221,207,285,32,28427,
15852,11552,-2744,11836,-236,131,132,-206,194,295,32,47596,
15853,11216,-3076,11832,-293,-269,-343,-207,200,298,32,38012,
15854,11520,-2208,11572,26,-591,-378,-207,200,298,32,28427,
15855,11564,-2612,12100,581,-1070,-639,-210,195,298,32,38012,
15856,11436,-1968,11620,1160,-1044,-881,-206,199,287,32,38012,
15857,11456,-2400,11144,248,-612,-514,-215,211,293,32,42804,
15858,11428,-2300,11072,-195,164,-85,-212,200,291,32,28427,
15859,11896,-2448,11832,556,407,-272,-212,200,291,32,42804,
15860,11672,-1952,11272,568,1293,349,-212,200,291,32,28427,
15861,11784,-2112,11332,1044,4457,1102,-212,211,298,32,61973,
15862,10748,-1204,10104,840,11100,6001,-202,211,286,32,1405,
15863,9168,-964,9404,2689,20216,10144,-202,211,286,32,42804,
15864,7344,-1720,12688,7530,21291,7842,-170,207,302,32,1405,
15865,3908,-468,11912,8658,23492,10257,-145,204,312,32,1405,
15866,3812,-1488,17888,4356,20144,10956,-109,233,330,32,47596,
15867,1408,-4744,16592,-881,16648,7695,-59,232,321,32,1405,
15868,2516,-6468,19548,-7052,11163,3383,-59,232,321,32,38012,
15869,2052,-5292,19244,-6497,2825,-445,-59,232,321,32,38012,
15870,504,-3168,15956,-3893,513,-914,-33,220,310,32,23635,
15871,480,-4148,16028,-2522,-386,-733,-30,199,300,32,38012,
15872,1072,-4624,17548,-1746,-2206,-942,-30,196,320,32,23635,
15873,1016,-4112,16172,390,-1979,-845,-30,196,320,32,38012,
15874,1072,-4068,15884,970,-857,-219,-39,187,313,32,28427,
15875,1320,-4192,16924,1305,-319,-182,-44,198,331,32,23635,
15876,1004,-4224,16224,543,257,-327,-39,203,318,32,28427,
15877,1376,-3824,16684,277,155,-353,-39,203,318,32,42804,
15878,1600,-3516,16508,-154,-619,27,-39,203,318,32,47596,
15879,1084,-4180,15552,-347,173,-458,-36,195,316,32,38012,
15880,1108,-3816,15900,-475,283,366,-48,207,317,32,28427,
15881,932,-4824,16012,354,276,-404,-48,207,317,32,28427,
15882,1140,-4192,16036,-642,401,-140,-44,198,321,32,1405,
15883,1028,-3616,15684,122,209,157,-44,198,321,32,23635,
15884,988,-4564,16048,-97,-38,-253,-43,194,317,32,42804,
15885,1080,-4060,16092,-635,55,-239,-42,208,316,32,28427,
15886,1176,-3636,15972,436,-182,-52,-42,208,316,32,38012,
15887,960,-4128,15532,1083,317,271,-42,206,316,32,57181,
15888,952,-3844,16136,4721,1059,458,-42,206,316,32,38012,
15889,1620,-952,17480,18636,-703,1879,-35,196,312,32,1405,
15890,788,-2876,18124,32767,-6133,-3608,-35,196,312,32,57181,
15891,-936,2736,10856,32767,1872,-2273,-45,317,295,32,42804,
15892,1060,7892,13984,32767,5680,4510,-35,385,255,32,42804,
15893,308,11012,14984,32767,7968,4041,-35,385,255,32,42804,
15894,112,9096,12808,32767,7335,1115,-38,438,200,32,38012,
15895,2464,11764,12356,22268,4838,2632,-28,475,130,32,42804,
15896,1444,15080,9296,17174,1869,2838,-30,475,87,32,38012,
15897,644,16028,5420,14850,-934,4315,-30,475,87,32,42804,
15898,976,15444,4332,7562,-1355,5371,-30,493,62,32,38012,
15899,632,15120,3560,5299,-1379,3143,-30,493,62,32,42804,
15900,648,15408,1932,2940,-40,1142,-45,480,27,32,47596,
15901,1656,14140,3820,-1193,-467,45,-49,484,21,32,42804,
15902,1776,15692,4212,-223,-1119,-542,-49,484,21,32,28427,
15903,1108,16288,2548,492,-81,-228,-42,481,18,32,1405,
15904,1556,15344,2956,-439,-131,409,-53,483,30,32,42804,
15905,1420,14888,3316,-959,-95,-197,-45,475,25,32,1405,
15906,1600,15596,3224,-665,-28,-518,-50,475,20,32,38012,
15907,1636,15868,3584,-567,-69,324,-50,475,20,32,47596,
15908,1456,15376,3796,-352,-186,287,-50,475,20,32,23635,
15909,1728,14652,3444,-1710,425,-156,-44,479,26,32,28427,
15910,2152,15124,4132,-1591,-81,-201,-49,484,28,32,38012,
15911,1528,17080,3432,-356,477,891,-49,484,28,32,23635,
15912,1848,15348,4820,43,-682,648,-49,484,28,32,38012,
15913,1512,14384,3968,-1463,89,-370,-54,481,36,32,47596,
15914,1840,15828,3608,-1722,622,252,-48,483,37,32,28427,
15915,1944,15448,4276,-813,163,166,-57,497,46,32,28427,
15916,1664,14936,4324,-1490,132,-407,-59,471,43,32,61973,
15917,1748,15620,4616,-1325,318,-400,-59,471,43,32,42804,
15918,1736,16000,4652,-832,266,30,-52,484,53,32,57181,
15919,1692,15164,5140,-752,-222,-316,-40,477,42,32,38012,
15920,1796,15388,5068,-1976,-404,-170,-40,477,42,32,38012,
15921,1824,15704,4696,-1596,-443,71,-49,486,51,32,42804,
15922,1720,14832,4968,-2916,-182,-271,-49,486,51,32,42804,
15923,1788,14348,5176,-4973,43,-811,-54,486,63,32,1405,
15924,1632,14484,5764,-6903,657,-1013,-44,484,51,32,23635,
15925,916,14496,5944,-6804,1741,-1334,-59,476,76,32,28427,
15926,1240,14864,6664,-4042,806,-1251,-59,476,76,32,23635,
15927,1464,14564,7568,-1749,-628,-1181,-50,469,90,32,57181,
15928,716,14784,6196,-1924,780,-420,-48,483,80,32,23635,
15929,1144,14820,7964,-277,330,347,-48,483,80,32,61973,
15930,1152,13128,7656,-248,122,-369,-42,471,86,32,38012,
15931,1008,14112,7448,-287,266,-274,-42,471,86,32,47596,
15932,816,14344,7324,-704,632,-44,-35,477,92,32,38012,
15933,1272,13540,8336,-2906,-135,-1081,-42,468,93,32,23635,
15934,1244,13800,7788,-6554,-831,-1590,-48,472,97,32,38012,
15935,1048,13044,8168,-13138,-1604,-3266,-28,475,112,32,47596,
15936,1600,8820,11988,-24383,-4693,-7654,-28,475,112,32,47596,
15937,-548,6944,13224,-32768,-7695,-12665,-30,454,142,32,42804,
15938,-1396,7536,13828,-32768,-3629,-11418,-30,454,142,32,1405,
15939,-1988,10216,15180,-32768,3002,-3119,-8,342,263,32,42804,
15940,280,6704,19196,-32768,3544,2052,-7,238,302,32,42804,
15941,1288,-3464,22268,-32768,-4771,-3546,-7,238,302,32,23635,
15942,-1840,-3472,12524,-32761,214,1494,-7,238,302,32,42804,
15943,-496,-7124,13084,-19855,-123,1570,-14,103,293,32,42804,
15944,1176,-14596,17232,-13888,-7029,-2771,-11,77,273,32,28427,
15945,-1420,-9904,7380,-5390,-3097,176,-22,55,270,32,42804,
15946,-28,-12576,9380,-3929,628,1260,-22,55,270,32,23635,
15947,536,-12160,12196,-585,-24,516,-22,55,270,32,47596,
15948,248,-12448,11744,-281,-1104,171,-22,52,265,32,09258,
15949,56,-11976,10160,-2911,1476,1141,-29,53,268,32,28427,
15950,696,-12200,12848,-408,-331,306,-29,53,268,32,38012,
15951,-120,-12516,11004,322,-613,-377,-29,53,268,32,23635,
15952,196,-12556,11264,-222,-434,-367,-30,49,255,32,28427,
15953,468,-12008,11776,523,-972,-427,-26,40,256,32,42804,
15954,188,-12252,11412,996,-1129,-736,-25,49,260,32,23635,
15955,492,-12400,11292,-797,-337,-276,-33,49,270,32,38012,
15956,788,-12276,12272,41,-1095,-525,-33,49,270,32,1405,
15957,408,-12292,11348,843,-1059,-725,-30,39,257,32,28427,
15958,720,-12528,11640,-2021,-602,-203,-39,48,263,32,38012,
15959,988,-11836,11660,-36,-1216,-398,-39,48,263,32,38012,
15960,432,-12408,10620,-543,-648,-63,-39,48,263,32,47596,
15961,812,-11944,11336,-196,-958,23,-42,45,253,32,23635,
15962,656,-12276,10772,589,-1103,-323,-36,35,266,32,42804,
15963,616,-12712,10476,-2387,346,351,-40,42,267,32,28427,
15964,1124,-11928,11908,-254,-579,-253,-33,42,260,32,47596,
15965,796,-12384,10828,-869,-634,-228,-33,42,260,32,1405,
15966,1184,-12268,11480,-1254,-1043,-47,-38,42,255,32,23635,
15967,1024,-12496,10688,-313,-397,-350,-47,38,261,32,38012,
15968,968,-12376,10672,33,-49,-60,-47,38,261,32,38012,
15969,1212,-12584,11092,-569,-131,-10,-34,35,266,32,47596,
15970,952,-12552,10600,329,165,-260,-34,35,266,32,28427,
15971,1056,-12540,10864,458,121,-273,-48,36,270,32,42804,
15972,964,-12392,10532,375,618,104,-48,36,270,32,23635,
15973,1196,-12856,11328,151,469,-139,-40,28,260,32,61973,
15974,1444,-12404,11660,265,-32,-71,-35,42,252,32,42804,
15975,1060,-12788,10932,-72,39,-161,-35,42,252,32,47596,
15976,1132,-12280,10748,65,436,73,-44,45,251,32,42804,
15977,1108,-12528,10956,46,369,253,-36,38,256,32,28427,
15978,1040,-12420,10652,1001,1217,276,-50,36,262,32,42804,
15979,848,-12616,11068,4320,1548,-430,-34,43,253,32,42804,
15980,536,-11940,10576,9689,3583,-894,-34,43,253,32,42804,
15981,68,-10384,11356,23332,5238,-1333,-34,43,253,32,38012,
15982,-548,-7716,11144,32767,6740,66,-29,90,291,32,38012,
15983,-68,-816,16632,32767,4472,5472,-16,150,301,32,38012,
15984,1048,-956,22136,32767,-1474,7144,-10,238,297,32,38012,
15985,-1004,-3324,17684,32767,-692,2022,-10,238,297,32,28427,
15986,-1020,1336,15092,19983,4369,1564,-16,316,286,32,42804,
15987,-752,2500,16024,10082,5992,-869,-6,339,266,32,28427,
15988,-708,6212,16192,2740,4681,-324,3,363,253,32,57181,
15989,-568,8020,17104,2413,918,122,3,363,253,32,38012,
15990,-2040,7832,14552,3684,-1028,463,3,363,253,32,1405,
15991,-1404,7208,13948,1748,-220,1576,7,378,240,32,42804,
15992,-1100,6128,14488,1017,-650,558,1,366,243,32,23635,
15993,-1796,6052,13796,451,722,111,1,366,243,32,47596,
15994,-1356,6708,14100,-907,1074,81,1,366,243,32,23635,
15995,-1376,6796,15368,-1427,-62,-60,7,378,240,32,1405,
15996,-1628,6672,15116,-678,-543,-297,5,380,237,32,66766,
15997,-1880,6900,14184,-1403,223,292,3,374,243,32,42804,
15998,-1416,6552,15484,-668,-353,156,3,374,243,32,47596,
15999,-1744,6304,14560,-501,-157,166,3,374,243,32,38012,
16000,-1312,5968,14804,-274,30,-273,5,383,240,32,28427,
16001,-1588,5952,14748,-883,400,-586,3,366,248,32,38012,
16002,-1340,7180,14956,79,146,79,3,366,248,32,57181,
16003,-1432,6292,14628,-88,-71,42,8,374,241,32,42804,
16004,-1704,6024,14560,-604,-90,-278,8,374,241,32,23635,
16005,-1392,6712,15480,-556,-590,375,10,370,250,32,42804,
16006,-1740,6108,15320,-329,-1240,-53,2,370,245,32,1405,
16007,-1832,6088,14392,-2008,-641,603,-2,364,237,32,09258,
16008,-1132,6208,15868,-308,-1403,-134,-1,360,251,32,28427,
16009,-1200,6060,14824,-658,-1679,460,-1,360,251,32,28427,
16010,-1040,5616,15380,-1063,-2354,45,1,371,256,32,42804,
16011,-1024,6228,15044,-451,-2425,396,1,371,256,32,57181,
16012,-1136,5864,14548,-724,-1560,548,-12,354,257,32,38012,
16013,-520,5204,15780,-1568,-2097,43,-17,359,252,32,28427,
16014,-236,5684,16012,-2074,-2665,232,-17,359,252,32,23635,
16015,-640,5516,14756,-1738,-1695,-502,-7,359,252,32,38012,
16016,-424,5900,14440,-2140,-340,14,-20,351,262,32,38012,
16017,28,5476,15764,-2000,-311,263,-11,347,268,32,28427,
16018,-444,4188,15968,-2302,-665,-769,-11,347,268,32,23635,
16019,-656,4128,16268,-3614,-501,-1462,-17,349,267,32,28427,
16020,-268,5256,16512,-2704,-1198,-1018,-17,349,267,32,47596,
16021,-96,5192,15248,-927,-1035,-446,-25,338,267,32,28427,
16022,168,4420,15452,-1128,-636,-186,-11,337,283,32,42804,
16023,172,3988,15364,-2058,-132,-36,-11,337,283,32,61973,
16024,276,4708,15376,-1658,-70,464,-11,337,283,32,42804,
16025,-60,5280,15304,-560,184,1343,-28,338,267,32,47596,
16026,108,3768,16320,-284,-597,1112,-21,337,268,32,1405,
16027,40,3516,15180,-585,-157,1072,-22,328,287,32,1405,
16028,1048,3696,15744,305,-435,1170,-22,328,287,32,47596,
16029,872,3360,15228,306,129,1005,-21,332,278,32,42804,
16030,772,2936,15968,-221,1054,361,-26,334,268,32,42804,
16031,764,3324,17124,-1101,1131,-21,-19,326,266,32,09258,
16032,468,4516,17096,-994,727,653,-19,326,266,32,38012,
16033,308,3924,17492,20,-462,886,-19,326,266,32,28427,
16034,52,2932,16276,-309,-744,663,-28,330,275,32,47596,
16035,156,3652,15716,-743,-478,877,-15,336,270,32,23635,
16036,400,4048,15916,-180,-1230,1095,-30,328,280,32,42804,
16037,704,3752,16164,871,-2304,917,-24,334,283,32,09258,
16038,548,3820,15836,203,-3000,1429,-24,334,283,32,23635,
16039,956,3904,16620,59,-3923,1863,-34,326,273,32,42804,
16040,972,4364,16008,337,-3009,2047,-35,338,282,32,42804,
16041,992,2820,15964,-717,-2391,2067,-35,338,282,32,28427,
16042,1412,1732,15944,-2463,-1539,1076,-40,336,285,32,38012,
16043,2168,3336,16376,-1882,-1968,756,-40,336,285,32,38012,
16044,2004,3384,15824,-1804,-1785,901,-44,324,276,32,38012,
16045,1988,2540,14848,-1455,-635,368,-44,324,276,32,47596,
16046,2620,2888,15728,-1321,-904,668,-50,322,287,32,47596,
16047,2312,2744,15204,-1186,-642,442,-57,324,296,32,42804,
16048,2492,2608,15836,-967,-667,309,-57,324,296,32,47596,
16049,2544,2204,15564,-920,-709,210,-63,315,290,32,42804,
16050,2616,1988,16720,-1244,-1393,147,-63,315,290,32,38012,
16051,2764,2072,15740,-914,-851,-222,-61,317,295,32,1405,
16052,2756,2324,15868,-598,-609,-269,-61,317,295,32,28427,
16053,3052,2600,15648,4,-497,-53,-62,308,296,32,38012,
16054,2636,2332,15516,144,365,-103,-62,308,296,32,57181,
16055,2792,1540,16424,-38,-111,-215,-63,309,295,32,09258,
16056,3088,1916,15988,-10,-454,30,-63,307,300,32,38012,
16057,2844,1972,15732,277,-305,-237,-63,307,300,32,42804,
16058,3176,2124,15488,242,291,-461,-66,307,300,32,38012,
16059,3100,2804,16096,182,-454,-3,-66,315,290,32,42804,
16060,2752,2660,15716,375,-180,238,-66,315,292,32,47596,
16061,2660,2128,15876,169,6,124,-64,321,303,32,42804,
16062,2788,2336,15632,271,-381,-88,-64,321,303,32,42804,
16063,2736,3104,15192,267,325,306,-64,321,303,32,38012,
16064,3156,2876,15440,523,516,415,-67,311,286,32,42804,
16065,2964,2792,15524,264,1177,697,-75,321,303,32,42804,
16066,3084,2792,16568,681,836,744,-63,315,287,32,38012,
16067,2868,2572,16468,511,127,596,-63,315,287,32,38012,
16068,2608,2012,16628,310,-50,214,-68,309,300,32,47596,
16069,2708,2100,16664,-95,75,503,-66,322,295,32,38012,
16070,2400,1912,15332,-696,1050,347,-71,320,300,32,42804,
16071,2788,1072,19212,-582,-828,-52,-71,320,300,32,38012,
16072,2908,1968,17284,-672,-472,220,-71,320,300,32,47596,
16073,2708,1916,16404,-438,104,116,-70,324,308,32,42804,
16074,3204,2024,16444,-449,608,114,-62,313,288,32,42804,
16075,2964,2260,15072,-431,1818,451,-64,316,298,32,57181,
16076,3372,2284,16660,-733,-195,999,-64,318,303,32,57181,
16077,2864,1872,15932,-480,-535,1033,-64,318,303,32,42804,
16078,2640,1656,16144,-805,-612,1255,-64,303,306,32,47596,
16079,2720,1488,16712,-1029,-419,832,-68,315,305,32,38012,
16080,2352,1536,15856,-1111,106,605,-68,315,305,32,28427,
16081,2376,1480,15920,-798,205,242,-68,315,305,32,47596,
16082,2484,2068,16596,-748,-66,473,-63,301,297,32,38012,
16083,2292,1736,16616,-122,-345,526,-70,305,298,32,23635,
16084,2460,1124,16408,-1056,-25,346,-70,305,298,32,47596,
16085,2436,1028,15972,-1290,-532,26,-70,308,298,32,38012,
16086,2424,1308,16168,-473,-72,-144,-70,308,298,32,47596,
16087,2224,1048,15992,-537,123,-367,-61,309,297,32,1405,
16088,2292,868,15848,-372,-95,-750,-62,303,303,32,38012,
16089,2548,1592,17292,-720,-824,-277,-70,295,296,32,47596,
16090,2720,1484,14856,-183,833,-606,-68,304,312,32,38012,
16091,3156,1140,16844,-395,-276,-314,-68,304,312,32,47596,
16092,2468,1100,15936,-760,311,-397,-66,307,305,32,38012,
16093,2696,1404,16140,-269,507,-423,-66,307,305,32,57181,
16094,2496,1376,15692,-797,990,61,-63,294,310,32,42804,
16095,2564,1040,15876,-607,-134,-168,-61,291,310,32,42804,
16096,2412,1076,16020,-291,536,-341,-61,291,310,32,28427,
16097,2512,1080,16452,-639,-116,-27,-62,295,306,32,47596,
16098,2580,1376,16284,-470,-218,173,-70,295,311,32,42804,
16099,2316,1556,16072,-225,115,206,-67,287,306,32,42804,
16100,2500,1044,16532,-568,13,429,-75,303,313,32,42804,
16101,2472,868,16312,-684,-313,510,-75,303,313,32,23635,
16102,2336,964,16376,-603,-141,282,-75,303,313,32,47596,
16103,2576,736,16772,-653,-941,620,-64,282,306,32,47596,
16104,2712,64,16696,-1001,-886,187,-58,288,315,32,38012,
16105,2656,224,16400,-1483,-622,219,-77,284,306,32,28427,
16106,2976,728,16352,-1041,-61,266,-77,284,306,32,42804,
16107,3100,556,16540,-1396,-737,653,-59,284,303,32,47596,
16108,2968,-52,16340,-1094,-758,587,-75,284,318,32,42804,
16109,3144,-424,15996,-1380,-1186,381,-73,273,317,32,42804,
16110,2800,-744,15996,-1415,-1253,801,-73,273,317,32,42804,
16111,3152,-1280,16276,-569,-993,-438,-73,273,317,32,42804,
16112,2708,-1392,14232,-11,174,-1331,-81,273,317,32,47596,
16113,2608,-672,14640,289,-125,-515,-71,273,312,32,42804,
16114,2764,-220,15048,42,52,213,-71,273,312,32,38012,
16115,2820,-852,16132,798,-190,-287,-71,273,312,32,1405,
16116,2824,-848,15808,16,-245,-241,-78,280,312,32,47596,
16117,2236,-400,14404,-1377,571,-129,-73,267,315,32,42804,
16118,3032,-572,15980,-1569,782,-547,-77,279,316,32,42804,
16119,3196,452,16492,862,-14,-372,-77,279,316,32,61973,
16120,3192,-532,16088,-456,1101,-107,-77,279,316,32,42804,
16121,2880,-248,16032,-424,1583,-451,-70,274,316,32,57181,
16122,3000,-940,17360,1095,135,-1252,-63,273,310,32,42804,
16123,2464,-616,17604,-148,268,-1083,-63,273,310,32,42804,
16124,2672,-716,16708,-2093,2114,-1189,-63,267,312,32,42804,
16125,2532,-488,16832,-1129,1441,-1059,-63,267,312,32,42804,
16126,2636,-872,17616,67,-391,-507,-56,267,317,32,38012,
16127,1656,-1988,16260,-146,99,-1149,-63,267,317,32,38012,
16128,2488,-868,17400,650,-975,-531,-59,261,318,32,1405,
16129,3060,-964,17920,1870,-2804,-999,-63,259,320,32,47596,
16130,2404,-1120,15312,693,-1678,-2039,-63,259,320,32,61973,
16131,3112,-172,15612,-362,-633,-2150,-76,267,317,32,42804,
16132,3828,1344,16052,2038,-1038,-962,-76,267,317,32,38012,
16133,3332,-796,15556,3969,-2033,-1801,-66,278,312,32,42804,
16134,2256,-1224,14928,4203,1,-2620,-73,283,310,32,28427,
16135,2652,44,15104,5238,2446,-3035,-73,283,310,32,42804,
16136,3032,868,16056,4729,2043,-4123,-63,296,312,32,23635,
16137,3008,20,17200,2481,571,-6929,-56,304,307,32,38012,
16138,3136,1964,16244,2278,-622,-7804,-49,300,298,32,47596,
16139,2896,3592,15448,741,1215,-6754,-52,308,303,32,42804,
16140,2676,3584,15672,-2871,1946,-5698,-52,308,303,32,38012,
16141,2188,3556,14108,-4171,3579,-4031,-52,308,303,32,42804,
16142,2088,4140,15268,-3964,5179,-872,-33,283,297,32,28427,
16143,1540,2196,16352,-1881,2467,-2279,-28,278,290,32,38012,
16144,552,2520,14468,-1697,3835,755,-28,278,290,32,42804,
16145,880,2164,15116,-2344,3451,2864,-5,280,297,32,42804,
16146,2048,2068,17392,-13085,127,15542,-15,273,302,32,42804,
16147,-7076,-3912,11088,-7556,5587,3925,-20,265,302,32,42804,
16148,1148,1312,19600,-3837,1926,4574,-14,258,301,32,42804,
16149,352,-332,19684,-120,-4117,4685,-14,258,301,32,42804,
16150,-1948,-3328,14864,-196,-2171,2825,-14,258,301,32,42804,
16151,76,-2776,16780,-1073,-1131,1904,-25,244,310,32,38012,
16152,920,-3800,18168,-231,-4788,1534,-24,248,306,32,38012,
16153,-156,-860,14808,-47,-2649,1685,-24,248,306,32,42804,
16154,944,-900,16292,-1140,-2862,1430,-24,248,306,32,23635,
16155,608,-592,14668,-487,964,571,-31,242,313,32,38012,
16156,1808,-112,17620,-708,-81,3268,-40,241,312,32,28427,
16157,884,-1300,17340,1876,-2669,2404,-42,242,313,32,42804,
16158,708,-3168,15628,4038,-1931,-284,-42,242,313,32,42804,
16159,1132,-1596,16676,-1803,-3211,2198,-42,242,313,32,1405,
16160,96,-5804,14264,-1634,-2244,-503,-49,242,311,32,42804,
16161,900,-2284,13772,-4047,1726,167,-47,255,311,32,23635,
16162,3328,-1464,17324,-1399,817,-73,-47,255,311,32,47596,
16163,2376,-2040,17152,1558,-826,241,-49,245,318,32,47596,
16164,2200,-3392,15244,3839,1923,-741,-49,245,318,32,38012,
16165,1620,-2584,16684,1191,3585,-819,-63,236,317,32,38012,
16166,-616,-3172,16732,-2391,2954,-793,-53,246,320,32,42804,
16167,776,-2244,16732,-3001,3629,-277,-53,246,320,32,42804,
16168,1432,-1736,18364,-1349,2200,-991,-42,234,308,32,42804,
16169,856,-2412,18088,-3183,-610,-834,-42,234,308,32,38012,
16170,-40,-3176,16044,-3838,81,-1266,-19,221,303,32,38012,
16171,232,-1180,15812,-2251,-168,138,-19,221,303,32,38012,
16172,-372,-2864,14876,-842,-812,477,-34,213,311,32,57181,
16173,556,-3628,15776,-607,-1237,14,-34,213,311,32,42804,
16174,484,-3800,15724,-771,-1601,-866,-39,213,313,32,42804,
16175,756,-2696,14948,-315,-682,52,-39,221,316,32,28427,
16176,1012,-3924,15312,542,310,-256,-39,208,313,32,47596,
16177,1548,-3556,16560,116,335,-57,-36,221,321,32,38012,
16178,1576,-3016,16696,187,255,-290,-36,221,321,32,38012,
16179,1444,-3364,17136,273,-442,-578,-29,216,316,32,23635,
16180,892,-3056,15800,-500,418,-595,-29,216,316,32,47596,
16181,876,-3500,16660,-68,-155,-1086,-30,225,310,32,47596,
16182,916,-3516,15648,1293,339,-1270,-36,216,311,32,42804,
16183,888,-2904,16288,404,46,-847,-36,216,311,32,47596,
16184,1240,-3524,16136,153,177,-1053,-31,211,321,32,42804,
16185,648,-2804,15288,788,1762,-520,-33,215,315,32,57181,
16186,1772,-2796,15940,2779,2110,-739,-36,211,313,32,38012,
16187,464,-2336,17148,6365,1500,-683,-33,225,310,32,47596,
16188,668,-116,18708,21125,-1662,-1096,-33,225,310,32,47596,
16189,-600,524,13672,32677,-814,1563,-33,225,310,32,47596,
16190,244,5468,17876,32767,-2252,5699,-22,296,295,32,47596,
16191,1208,9468,20448,32767,-6147,10740,-40,383,252,32,38012,
16192,148,620,13980,31990,-2535,5487,-40,383,252,32,23635,
16193,1972,7488,7676,9977,1705,1424,-40,383,252,32,47596,
16194,3208,15052,9260,7315,435,2271,-49,458,146,32,42804,
16195,3884,12320,10760,1418,-1435,539,-70,473,133,32,47596,
16196,4572,17800,10400,1185,-3101,2655,-62,473,131,32,57181,
16197,2216,13036,6984,859,-1135,2478,-62,473,131,32,47596,
16198,2620,10712,8260,-2470,393,-600,-62,473,131,32,1405,
16199,3144,12788,7204,-964,1895,-467,-72,473,126,32,1405,
16200,3268,11400,9152,-1711,2736,-1761,-63,472,137,32,42804,
16201,2772,11608,10280,-1494,1854,-2637,-63,472,137,32,28427,
16202,2300,13044,8600,-661,2498,-1975,-68,464,132,32,42804,
16203,2332,11560,12752,-791,-313,-2973,-68,464,132,32,42804,
16204,2484,13872,9468,499,-1443,-1755,-48,467,140,32,47596,
16205,1160,10112,6904,-2359,1188,-3541,-48,472,142,32,38012,
16206,2036,14512,9316,-1070,473,-1772,-40,462,137,32,38012,
16207,1264,14556,9452,1400,290,-61,-40,462,137,32,42804,
16208,612,10532,11288,-1594,-660,-2658,-44,455,141,32,57181,
16209,944,16060,10176,963,-878,-145,-39,455,141,32,09258,
16210,980,13124,9740,2068,-132,225,-39,455,141,32,47596,
16211,964,9872,9696,-1156,-275,-3011,-45,469,140,32,61973,
16212,1368,14116,8240,-218,1047,-2205,-45,469,140,32,47596,
16213,1384,14780,9460,1711,1009,111,-34,455,143,32,28427,
16214,1692,11088,12492,-2321,-1921,-1107,-38,456,137,32,1405,
16215,764,14160,8356,-1469,-967,-266,-33,454,140,32,61973,
16216,1328,12456,9956,-2850,-994,136,-35,467,147,32,28427,
16217,1272,11852,9708,-1650,-862,-630,-35,467,147,32,38012,
16218,2024,14388,9556,1408,-1154,855,-35,456,152,32,38012,
16219,2624,13232,8916,-955,483,1080,-35,456,152,32,47596,
16220,1760,11700,8692,-5583,2610,-1093,-45,454,152,32,23635,
16221,2464,14708,11484,-5608,2540,-555,-35,451,167,32,38012,
16222,1800,13344,10652,-3474,2907,1107,-35,451,167,32,42804,
16223,1584,10620,12160,-4073,2937,790,-30,438,167,32,38012,
16224,1572,10488,13124,-3677,2393,622,-24,437,176,32,38012,
16225,720,9772,12752,-3412,2490,67,-21,442,186,32,42804,
16226,440,10476,12144,-3040,2382,68,-19,442,183,32,42804,
16227,1316,11948,12968,-1151,675,1546,-19,442,183,32,1405,
16228,220,10580,10784,-884,1121,2361,-19,442,183,32,42804,
16229,-596,9104,12048,-1045,1338,1506,-21,429,196,32,42804,
16230,-292,10408,12372,878,98,1986,-25,427,182,32,42804,
16231,-1188,9964,10540,1756,1130,2166,-34,434,196,32,28427,
16232,-996,9536,12608,1853,476,1411,-34,434,196,32,28427,
16233,-1416,10068,13524,1020,-652,874,-40,438,177,32,28427,
16234,-688,12296,12252,2463,-1512,1832,-36,434,173,32,47596,
16235,-268,10620,11412,1230,-1294,1078,-40,438,175,32,47596,
16236,280,10156,10224,-817,-304,-657,-40,438,175,32,57181,
16237,784,11636,10616,-529,328,-489,-40,438,175,32,42804,
16238,872,11644,10972,-59,644,-1,-40,438,175,32,23635,
16239,800,10684,12444,-77,-34,-239,-42,439,168,32,28427,
16240,668,10636,11160,-376,235,-453,-38,430,177,32,38012,
16241,648,10352,10716,-715,1085,-805,-38,430,177,32,38012,
16242,612,11092,11396,-297,1116,-424,-31,426,176,32,38012,
16243,552,11224,12752,-238,328,-128,-28,443,180,32,38012,
16244,100,11492,11964,-368,75,57,-34,434,176,32,42804,
16245,568,11368,11808,499,134,346,-34,434,176,32,47596,
16246,420,10348,12088,-575,91,-128,-34,434,176,32,42804,
16247,156,10972,11684,-625,233,-203,-29,431,168,32,28427,
16248,272,10948,12084,-424,681,-98,-31,426,181,32,04466,
16249,464,10560,12432,-268,355,-488,-25,443,175,32,42804,
16250,640,11340,12532,-1656,-109,87,-22,435,175,32,61973,
16251,728,10368,13580,-5055,-2073,-817,-22,435,175,32,42804,
16252,704,10756,11852,-16551,-1912,-2381,-35,433,182,32,42804,
16253,1064,7064,13504,-31309,-2367,-7659,-30,412,205,32,47596,
16254,-660,3900,15072,-32768,1426,-11449,-30,412,205,32,1405,
16255,1736,8984,9208,-32768,8298,-6330,-17,286,290,32,1405,
16256,40,-232,19920,-32768,5758,-4109,-17,286,290,32,42804,
16257,-516,-2776,16968,-27233,1980,620,15,204,300,32,38012,
16258,-1860,-16176,16892,-22023,-3216,-2510,1,143,286,32,38012,
16259,-1372,-12220,15464,-20609,-6426,-4660,5,99,282,32,47596,
16260,-884,-9584,12420,-9509,-8609,-4213,-21,69,273,32,42804,
16261,-360,-12604,10032,-11001,-5388,-3207,-21,69,273,32,42804,
16262,680,-11784,10160,-7541,-4686,-1816,-25,52,257,32,66766,
16263,996,-12880,9884,-2858,-3781,-1915,-25,52,257,32,47596,
16264,908,-12712,8784,-2531,-901,-510,-49,32,261,32,57181,
16265,1156,-13704,9544,-1373,578,-592,-49,32,261,32,38012,
16266,1988,-13212,12000,-2178,-672,-753,-42,24,258,32,42804,
16267,1740,-12352,10000,-1608,-213,-62,-42,24,258,32,42804,
16268,1748,-13416,10244,29,-42,-343,-48,23,242,32,42804,
16269,1952,-13784,11244,-1390,-1126,-544,-45,26,255,32,23635,
16270,1672,-12728,9360,-825,-541,-255,-45,26,255,32,04466,
16271,1800,-12900,9468,187,-448,-179,-47,9,251,32,23635,
16272,1592,-13796,9912,-888,-553,-341,-47,9,251,32,1405,
16273,1788,-13020,9268,-822,-240,-135,-59,11,248,32,38012,
16274,1572,-13704,10212,-954,-454,-221,-48,2,247,32,42804,
16275,1944,-13492,10172,-874,-788,-489,-48,2,247,32,42804,
16276,1696,-13560,9172,-1224,-27,-302,-48,2,247,32,38012,
16277,2300,-13080,9780,5,-359,-170,-47,9,243,32,38012,
16278,1820,-13780,9160,-781,289,-75,-54,3,236,32,66766,
16279,1984,-13312,9220,-66,202,50,-54,6,246,32,09258,
16280,1852,-13616,9584,-47,-40,-61,-54,6,246,32,28427,
16281,1888,-13380,9552,276,-5,-109,-54,6,246,32,47596,
16282,1916,-13040,9368,537,34,184,-56,10,240,32,42804,
16283,1792,-13460,9284,407,343,173,-50,15,247,32,42804,
16284,2016,-13276,9520,896,254,137,-50,15,247,32,28427,
16285,2008,-13508,9876,755,150,24,-50,15,247,32,38012,
16286,1888,-13456,9688,1144,95,-35,-59,9,248,32,42804,
16287,1824,-13520,9352,589,402,-131,-47,22,241,32,23635,
16288,1960,-13360,9636,-80,974,-19,-54,3,248,32,47596,
16289,2000,-13168,10256,-69,198,4,-54,3,248,32,28427,
16290,1816,-13292,10196,-968,5,-155,-54,3,248,32,47596,
16291,1776,-13248,9816,-1316,58,-12,-58,18,237,32,42804,
16292,1896,-13548,9864,-835,-144,-139,-44,9,246,32,28427,
16293,1724,-13344,9120,-727,-63,-150,-44,9,246,32,42804,
16294,1836,-13404,9660,106,-50,-308,-44,11,246,32,42804,
16295,1872,-12976,9464,866,232,97,-44,11,246,32,1405,
16296,1728,-13356,9632,5,230,35,-56,0,247,32,38012,
16297,1780,-12988,9608,848,290,339,-39,14,246,32,47596,
16298,1428,-12596,9780,1787,480,635,-39,14,246,32,28427,
16299,944,-13144,10396,2160,-9,587,-39,14,246,32,57181,
16300,400,-13176,10316,2315,230,602,-52,19,246,32,47596,
16301,-268,-12360,10508,4197,182,406,-50,21,252,32,42804,
16302,-236,-12180,10700,3823,493,377,-50,21,252,32,42804,
16303,-492,-12356,11340,3601,188,-611,-50,23,257,32,28427,
16304,-404,-9568,10160,3440,1210,653,-50,23,257,32,38012,
16305,732,-12480,13536,3995,-547,-416,-40,34,262,32,47596,
16306,608,-12316,10332,2254,1220,-931,-48,42,265,32,42804,
16307,1588,-11804,13076,3492,770,-832,-48,42,265,32,42804,
16308,2744,-12780,14364,3349,-1968,-1111,-48,55,270,32,42804,
16309,2632,-11380,11844,877,-1097,-1243,-48,55,270,32,47596,
16310,3488,-11724,14232,2714,-3274,-2392,-59,66,276,32,28427,
16311,3832,-11768,14560,1205,-4159,-1228,-59,66,276,32,23635,
16312,2760,-11612,10776,-529,-3012,-1385,-67,51,291,32,42804,
16313,4040,-10864,12504,-129,-3402,597,-66,52,287,32,47596,
16314,3872,-12968,12924,-1482,-4375,56,-66,52,287,32,47596,
16315,3676,-12172,10564,-901,-3292,-771,-73,57,297,32,47596,
16316,5272,-9496,11552,-2187,-3762,2390,-73,57,297,32,42804,
16317,4552,-12220,10604,-2330,-1690,1218,-81,47,285,32,42804,
16318,4692,-12336,10520,-21,-1436,774,-86,36,287,32,47596,
16319,4416,-12000,10296,-1497,-516,1511,-86,36,287,32,38012,
16320,3608,-12708,10376,-576,-1492,701,-86,36,287,32,47596,
16321,3776,-12428,9852,-1015,-1251,662,-91,42,277,32,47596,
16322,3812,-11412,10444,-1577,-1454,1094,-92,48,291,32,42804,
16323,3584,-12708,11172,-525,-2213,-242,-91,36,285,32,47596,
16324,3480,-11984,10276,-249,-1703,-231,-91,36,285,32,42804,
16325,3656,-12332,10656,-946,-1405,-575,-91,36,285,32,61973,
16326,3532,-12908,10924,-887,-1644,-1008,-96,34,287,32,42804,
16327,3900,-12480,11232,-90,-1691,-1011,-101,34,287,32,47596,
16328,4196,-11536,10132,-434,-841,-477,-101,34,287,32,66766,
16329,4304,-12048,9820,-8,233,-297,-106,34,280,32,57181,
16330,4552,-12056,10920,289,184,-128,-108,32,281,32,61973,
16331,4680,-11880,11388,109,188,155,-104,44,297,32,66766,
16332,4592,-11888,11780,-30,92,517,-108,35,278,33,09896,
16333,4084,-12764,11608,-653,-294,7,-108,35,278,33,14688,
16334,4332,-11920,11136,-921,-226,184,-108,35,278,32,95519,
16335,4768,-11804,11252,-488,-282,97,-103,32,283,33,14688,
16336,4440,-12092,10676,-537,-77,263,-103,22,291,33,09896,
16337,4136,-12336,10184,94,300,165,-104,23,277,33,19481,
16338,4088,-12472,10616,-202,636,138,-104,23,277,33,29065,
16339,4712,-12384,12232,90,-562,-107,-104,23,277,33,53027,
16340,4276,-12524,10808,-1095,107,26,-104,34,280,33,53027,
16341,4536,-11908,11652,-110,-288,337,-103,27,271,33,53027,
16342,4096,-12724,10976,-689,-295,55,-95,22,283,33,43442,
16343,4400,-12300,10924,-189,-48,29,-95,22,283,33,43442,
16344,4380,-11936,10964,570,-40,230,-95,22,283,33,62611,
16345,4308,-12924,11204,-524,52,2,-108,24,281,33,8178,
16346,4000,-12644,10628,118,229,-316,-101,23,287,33,8178,
16347,4476,-12188,11072,-23,287,-131,-105,30,276,33,72196,
16348,4332,-11824,10976,265,467,393,-105,30,276,33,86573,
16349,3944,-12908,10772,-367,612,-21,-110,24,291,33,8178,
16350,4328,-12528,11608,-560,263,-296,-105,24,278,33,86573,
16351,4416,-12048,11584,-446,-15,-187,-103,24,273,34,05742,
16352,4128,-12444,10944,62,-120,-350,-99,26,262,34,24911,
16353,4112,-12492,11264,-342,-158,-358,-99,26,262,34,24911,
16354,4088,-12280,10432,-363,197,-222,-99,26,262,34,15326,
16355,4092,-12580,11352,458,-454,-617,-103,19,283,34,24911,
16356,3944,-12464,9820,-435,456,-415,-104,18,275,34,00949,
16357,3960,-12400,9856,83,969,-356,-104,18,275,34,39288,
16358,3992,-12520,10376,1006,1160,-619,-99,18,275,34,24911,
16359,4324,-12220,10840,807,1309,-655,-99,18,275,34,24911,
16360,4200,-12112,10476,1172,1479,-423,-100,27,281,34,48872,
16361,4208,-12184,11268,1978,1113,-436,-95,22,281,34,39288,
16362,4104,-12728,11296,1000,1007,-791,-95,22,281,34,53665,
16363,3984,-12116,10732,1387,1588,-732,-95,30,281,34,39288,
16364,4248,-11880,12088,1546,1204,-563,-95,30,281,34,34496,
16365,4048,-11480,11476,1024,1069,-221,-90,30,283,34,24911,
16366,4020,-11092,11556,1001,1462,327,-94,28,282,34,24911,
16367,4332,-11804,12832,228,659,173,-94,28,282,34,39288,
16368,3880,-11456,12232,312,391,286,-90,40,288,34,15326,
16369,3684,-12308,12336,-143,67,-196,-90,40,288,34,00949,
16370,3760,-11848,11788,-22,57,-337,-82,30,286,34,05742,
16371,3636,-11800,10640,-107,629,-293,-87,30,286,33,86573,
16372,3948,-12128,11672,-98,674,-458,-87,30,286,33,96157,
16373,3988,-11752,11688,-389,580,-448,-84,39,282,33,86573,
16374,4252,-11048,12060,-161,43,-214,-84,39,282,33,96157,
16375,4036,-11572,11172,29,138,-56,-89,44,282,33,86573,
16376,4040,-11132,11200,203,64,469,-87,30,296,33,86573,
16377,3900,-11764,11588,634,-445,339,-87,30,296,33,96157,
16378,3428,-11644,10940,816,-294,387,-82,45,286,33,8178,
16379,3192,-11596,10932,311,410,648,-82,45,286,33,8178,
16380,3092,-12120,11636,434,639,330,-77,40,288,33,67403,
16381,3420,-11448,12092,944,326,170,-80,38,283,33,62611,
16382,3396,-11672,11836,242,422,110,-80,38,283,33,67403,
16383,3256,-12284,10816,82,881,-100,-85,45,293,33,62611,
16384,3720,-12204,11536,404,732,-532,-85,45,293,33,8178,
16385,3864,-11416,11508,144,394,-494,-81,39,287,33,67403,
16386,3484,-11544,10900,249,618,-539,-81,39,287,33,53027,
16387,3812,-11204,11464,374,506,-426,-72,30,286,33,48235,
16388,3576,-10328,11040,475,1367,220,-86,34,287,33,43442,
16389,3752,-10468,13320,871,318,370,-76,39,290,33,48235,
16390,3360,-10604,12612,1088,-326,945,-76,47,290,33,53027,
16391,2696,-11856,12432,344,-411,995,-76,47,290,33,53027,
16392,2576,-12332,11804,553,-272,49,-89,42,290,33,29065,
16393,2984,-11064,12004,380,-112,107,-73,42,292,33,33857,
16394,2992,-11180,12508,352,-402,19,-77,43,286,33,53027,
16395,2936,-11052,11996,457,-591,-101,-80,48,298,33,43442,
16396,3292,-10788,11784,398,-581,382,-80,48,298,33,33857,
16397,3392,-10600,11704,498,-551,760,-85,48,293,33,43442,
16398,3744,-10980,11828,177,-452,1042,-85,48,293,33,19481,
16399,3640,-11268,12744,1536,-1583,1156,-80,61,296,33,19481,
16400,3180,-11948,11820,1033,-1452,1000,-78,47,280,33,09896,
16401,3388,-11272,12224,746,-1319,1394,-78,47,280,33,43442,
16402,3056,-11696,11924,553,-1237,1373,-80,51,288,33,19481,
16403,3380,-11264,11216,258,-484,1916,-80,51,288,33,19481,
16404,3480,-11220,11524,-919,-132,2072,-78,47,300,33,19481,
16405,3516,-11040,10896,572,-726,1343,-76,49,297,33,48235,
16406,3408,-10816,10824,228,-211,1195,-76,49,297,33,14688,
16407,3236,-11344,11168,593,-293,459,-76,55,300,33,19481,
16408,3476,-11320,12080,1093,-575,234,-82,45,301,33,19481,
16409,3408,-11600,12280,1380,-632,21,-91,55,312,33,14688,
16410,3036,-10992,12696,781,-455,339,-76,57,305,33,14688,
16411,2828,-11116,12412,720,-237,482,-76,57,305,33,14688,
16412,2752,-11052,12116,323,-276,750,-76,57,305,33,19481,
16413,2968,-11256,12596,496,-633,568,-87,74,296,33,19481,
16414,3076,-10960,11904,160,-376,413,-75,64,308,33,29065,
16415,3100,-11280,12576,229,-517,-68,-75,64,308,33,19481,
16416,2876,-10788,12568,362,-1060,-285,-85,61,296,33,09896,
16417,2720,-11068,11836,-73,-607,-689,-85,61,296,33,14688,
16418,3448,-10564,11752,541,-619,-777,-85,56,298,33,00312,
16419,3752,-10288,12072,334,-392,-433,-95,66,303,33,19481,
16420,3920,-10116,12600,379,-371,62,-95,66,303,33,19481,
16421,3668,-10860,12748,27,-551,-104,-84,65,295,33,09896,
16422,3364,-11052,12184,-177,-441,-243,-86,76,312,32,90727,
16423,3276,-10964,12392,-94,-661,-632,-86,52,302,32,95519,
16424,3404,-10792,11604,35,-360,-746,-92,66,308,33,09896,
16425,3464,-10472,11868,-19,-135,-592,-92,66,308,33,29065,
16426,3684,-10572,11956,37,187,-348,-92,66,308,33,00312,
16427,3720,-10516,12520,71,-87,-101,-104,68,307,33,09896,
16428,3760,-10984,12240,9,-242,-226,-98,64,303,33,14688,
16429,3804,-11028,11856,-287,-117,-315,-92,66,303,33,09896,
16430,4076,-10544,11812,561,-386,-329,-92,66,303,33,09896,
16431,4012,-10784,11888,560,-328,-332,-92,66,303,33,09896,
16432,4044,-10312,12032,44,175,23,-98,64,301,32,90727,
16433,3936,-10548,12584,-104,110,106,-82,74,311,33,00312,
16434,3904,-10836,12884,257,-546,-60,-85,64,306,32,95519,
16435,3864,-10944,12176,103,-436,-130,-85,64,306,33,14688,
16436,3764,-11032,12364,249,-687,-432,-94,60,312,32,90727,
16437,4008,-10400,12128,466,-781,-282,-92,64,308,32,90727,
16438,4100,-10148,11352,-134,-316,84,-110,61,311,32,95519,
16439,4144,-10184,11568,-151,228,268,-110,61,311,33,09896,
16440,4088,-10516,12208,212,-50,-52,-110,61,311,33,00312,
16441,4036,-10672,12160,406,-252,-155,-109,81,312,32,90727,
16442,3964,-10492,11772,191,125,-172,-100,69,306,32,95519,
16443,4196,-10156,12308,219,-124,-70,-101,63,310,32,90727,
16444,3988,-10204,12092,225,191,102,-101,63,310,33,09896,
16445,4076,-10604,12524,510,11,24,-101,63,310,33,00312,
16446,3952,-10780,12460,-264,71,-55,-101,63,302,32,95519,
16447,4328,-10512,12468,149,-175,-112,-92,59,311,32,95519,
16448,4224,-10408,12228,-65,-145,121,-94,63,305,33,09896,
16449,4248,-10480,12536,-60,-386,57,-94,63,305,32,90727,
16450,4136,-10340,12196,-41,-259,179,-101,63,302,33,00312,
16451,3972,-10384,12244,71,-173,321,-99,68,307,32,81142,
16452,4068,-10512,12348,173,-258,401,-104,78,305,33,00312,
16453,3956,-10500,12148,13,-208,489,-104,78,305,32,90727,
16454,3972,-10692,12424,-300,-296,274,-104,78,305,32,95519,
16455,3908,-10736,12252,-236,-494,86,-104,68,307,32,90727,
16456,4052,-10236,12048,-186,-657,97,-98,77,301,32,90727,
16457,4204,-9956,12116,-497,-737,160,-103,66,311,33,09896,
16458,4452,-10436,11832,-278,-293,39,-103,66,311,32,90727,
16459,3884,-10720,11940,-73,-227,-19,-103,66,311,32,7635,
16460,4140,-10400,11748,463,63,83,-108,59,296,32,81142,
16461,4176,-10736,11676,166,170,0,-95,74,301,32,61973,
16462,4160,-10548,11848,140,273,251,-95,74,301,32,90727,
16463,3844,-10836,12136,216,244,113,-105,74,298,32,61973,
16464,4088,-10728,12532,45,-214,-69,-105,74,298,32,90727,
16465,4100,-10720,12256,-329,61,91,-98,59,303,32,95519,
16466,4268,-10524,12444,-287,-242,71,-100,77,306,32,66766,
16467,3972,-10660,12056,-237,-334,143,-100,77,306,32,90727,
16468,3844,-10840,11564,-536,86,100,-105,72,303,32,90727,
16469,4216,-10820,12396,-150,-287,-97,-105,72,303,32,81142,
16470,3868,-10616,11476,-121,78,-1,-94,65,310,32,57181,
16471,3992,-10584,11508,279,577,-33,-94,65,310,32,61973,
16472,3948,-10824,11756,83,337,-119,-91,68,307,32,90727,
16473,3948,-10644,11824,232,408,-244,-91,68,307,32,90727,
16474,4032,-10744,12048,363,393,-204,-103,72,293,32,7635,
16475,4136,-10372,12376,521,336,44,-90,64,301,32,90727,
16476,4232,-10456,12688,472,238,314,-90,64,301,32,90727,
16477,4192,-10188,13272,154,56,784,-99,68,302,32,7635,
16478,3956,-11056,13072,-490,-481,665,-99,68,302,32,66766,
16479,3796,-10700,12200,-95,-654,624,-104,65,310,32,66766,
16480,3552,-11124,12200,-646,-1045,168,-96,63,295,32,81142,
16481,3512,-10540,11296,22,-876,-78,-106,65,292,32,66766,
16482,4100,-10420,11948,646,-840,-119,-98,64,298,32,90727,
16483,4316,-10592,11616,-553,-334,-10,-98,64,298,32,66766,
16484,4396,-10340,11284,-147,-34,258,-106,65,302,32,81142,
16485,4112,-10892,11048,475,350,518,-106,65,302,32,81142,
16486,3760,-11160,10928,-216,1125,901,-108,69,303,32,90727,
16487,3552,-11160,11196,42,1083,915,-99,70,312,32,61973,
16488,3632,-10564,12052,-214,899,1357,-99,70,312,32,90727,
16489,3360,-11068,12580,-676,502,1211,-94,68,300,32,81142,
16490,3064,-11456,11832,-665,382,987,-100,66,301,32,95519,
16491,3128,-12360,12112,-326,266,83,-94,65,295,32,81142,
16492,3844,-11624,12044,-821,-394,-228,-95,64,306,32,90727,
16493,3564,-10984,11548,-1104,-232,-287,-95,64,306,32,66766,
16494,3548,-10688,11664,-978,-79,-490,-95,64,306,32,66766,
16495,3492,-10996,11004,-570,492,-668,-96,63,292,32,66766,
16496,3336,-10908,11240,-591,1156,-856,-100,56,286,32,66766,
16497,3640,-11024,12144,-280,888,-1064,-91,65,297,32,7635,
16498,3584,-11176,12492,-37,206,-1462,-91,65,297,32,57181,
16499,3296,-11184,10664,541,534,-1624,-91,65,297,32,81142,
16500,2960,-10928,10724,654,1495,-1441,-92,59,298,32,90727,
16501,3808,-10256,12744,1288,644,-824,-98,64,303,32,66766,
16502,3888,-11092,12188,3975,-817,-1329,-98,64,303,32,57181,
16503,3572,-10900,11880,4820,-960,-1409,-98,64,303,32,61973,
16504,4360,-9436,13092,6028,-2138,-443,-103,74,306,32,61973,
16505,4672,-10444,13756,8824,-4058,-1925,-101,84,305,32,7635,
16506,4192,-9464,11988,5538,-2555,-1583,-104,102,305,32,7635,
16507,4960,-8092,12900,1223,-668,-37,-104,102,305,32,81142,
16508,4964,-9108,13584,200,-1063,-584,-104,102,305,32,66766,
16509,4676,-8520,12284,-303,-429,-298,-110,114,321,32,61973,
16510,4872,-7972,12772,227,2,145,-110,101,313,32,66766,
16511,5076,-7656,13520,828,-612,597,-118,114,311,32,66766,
16512,4632,-8748,12104,1287,527,33,-118,114,311,32,81142,
16513,5008,-8156,14124,1781,-101,-11,-127,110,317,32,47596,
16514,4820,-8264,14056,675,206,-287,-112,112,320,32,66766,
16515,4464,-8516,13604,923,235,-1437,-113,114,308,32,7635,
16516,4644,-8300,14124,1358,-303,-1946,-113,114,308,32,66766,
16517,5016,-8332,13280,475,74,-2382,-113,114,308,32,7635,
16518,5580,-6984,13688,1185,897,-1762,-108,119,311,32,61973,
16519,5384,-7120,13996,628,524,-1368,-115,111,321,32,90727,
16520,5552,-7636,14024,-1223,1322,-1615,-115,116,316,32,95519,
16521,6264,-6392,14464,318,246,-539,-115,119,313,32,7635,
16522,6180,-7892,13420,813,691,-877,-115,119,313,32,66766,
16523,5876,-7312,13752,-1661,1670,553,-105,122,316,32,66766,
16524,5956,-7624,15372,277,-1151,733,-112,123,315,32,90727,
16525,5060,-8056,12964,-1148,-265,1088,-112,123,315,32,66766,
16526,5160,-8272,14232,-1727,319,1242,-114,123,322,32,7635,
16527,5136,-8032,14804,-797,-1713,815,-114,123,322,32,66766,
16528,4776,-7908,12780,-599,-1501,1042,-108,127,318,32,66766,
16529,4944,-8100,13520,-407,-1896,1107,-108,119,313,32,61973,
16530,4524,-8504,12856,-651,-1835,917,-110,106,313,32,81142,
16531,5048,-7944,14232,-728,-2386,1612,-128,108,316,32,57181,
16532,4788,-8364,13636,207,-2522,2144,-128,108,316,32,57181,
16533,4744,-9008,13336,-775,-1926,2400,-127,115,307,32,95519,
16534,4844,-8796,12756,-146,-1558,2525,-127,115,307,32,66766,
16535,5528,-8424,13272,-525,-2405,2750,-113,103,321,32,61973,
16536,5468,-8384,13560,-516,-3121,2551,-113,103,321,32,81142,
16537,5060,-9292,11880,-622,-2941,2248,-131,103,301,32,7635,
16538,5092,-9364,11816,-647,-3352,1676,-127,97,325,32,66766,
16539,5132,-9752,11680,-585,-3033,638,-127,97,325,32,7635,
16540,6336,-9404,11048,-1434,-1365,1184,-129,91,315,32,81142,
16541,6928,-7844,13036,-1198,-1915,2446,-129,91,315,32,61973,
16542,5628,-10680,11568,-1962,-1642,1812,-141,87,313,32,66766,
16543,4976,-10688,10260,-2668,-362,1920,-141,87,313,32,81142,
16544,5036,-11124,11400,-785,-702,1092,-142,86,310,32,66766,
16545,4960,-10960,10452,-1439,532,581,-147,86,307,32,95519,
16546,5532,-10296,12148,-1186,205,287,-147,86,307,32,95519,
16547,5732,-10108,12428,-197,-426,175,-151,77,313,33,09896,
16548,5588,-10120,12024,-464,-319,-285,-151,77,313,32,95519,
16549,5604,-10636,12240,-131,-296,-728,-142,81,305,33,19481,
16550,5544,-10596,11296,-333,116,-691,-147,78,310,33,09896,
16551,5808,-10176,12044,-360,510,-680,-147,78,310,33,19481,
16552,6052,-10548,12468,-563,456,-993,-150,86,310,33,43442,
16553,6064,-10124,12052,-145,321,-823,-146,80,301,33,62611,
16554,6324,-9784,11908,-516,555,-119,-143,87,308,33,43442,
16555,6316,-10144,12740,-69,-46,-124,-146,77,303,33,53027,
16556,5824,-10432,11680,-60,346,-90,-146,77,303,33,62611,
16557,6144,-9880,12708,-203,41,235,-147,73,307,33,72196,
16558,6064,-10112,12676,320,-185,32,-138,74,306,33,62611,
16559,5560,-10888,11800,-19,178,-277,-148,72,301,34,00949,
16560,5920,-10120,12416,213,260,-226,-136,72,298,33,86573,
16561,6060,-10112,12564,442,-28,-356,-136,72,298,33,86573,
16562,5872,-10460,12160,257,97,-435,-140,81,300,33,96157,
16563,5940,-10056,12404,-28,607,-203,-137,78,310,33,86573,
16564,6416,-10064,13508,162,-543,-70,-146,74,306,34,15326,
16565,5808,-10224,12344,-186,-313,-66,-146,74,306,34,05742,
16566,5956,-10156,12348,-179,-144,-15,-145,70,307,34,20119,
16567,6088,-10232,12536,76,-539,-136,-143,80,301,34,53665,
16568,5884,-10136,12000,-402,-3,-122,-146,69,303,34,20119,
16569,6016,-9724,12408,-18,-75,-147,-143,80,313,34,39288,
16570,6084,-10288,12808,-44,-202,-286,-143,80,313,34,20119,
16571,5964,-10272,12620,-146,-249,-160,-142,63,297,34,39288,
16572,5944,-10032,12536,-103,-168,-322,-148,77,306,34,53665,
16573,6356,-9916,12432,-147,5,-129,-148,77,306,34,72834,
16574,5948,-10468,12100,111,272,-297,-145,70,312,34,72834,
16575,5952,-10164,12520,114,181,-247,-145,70,312,34,68042,
16576,5772,-10216,12084,97,247,-357,-136,85,306,34,72834,
16577,5580,-10432,11616,198,661,-490,-148,80,298,34,8721,
16578,5672,-10364,11884,575,893,-661,-148,80,298,34,8721,
16579,5456,-10576,11340,711,1217,-981,-142,84,307,34,92003,
16580,5196,-10708,11056,491,1521,-937,-142,84,307,35,0638,
16581,4336,-12320,9660,1760,1596,-2656,-138,77,303,35,01587,
16582,4312,-10264,8672,1273,4220,-2658,-138,77,308,35,01587,
16583,5372,-9616,11992,164,4470,-1928,-138,87,308,34,92003,
16584,4808,-10528,11436,1680,4982,-2981,-123,87,306,34,92003,
16585,6520,-7920,15968,150,3726,-1827,-123,87,306,34,8721,
16586,5552,-9876,13756,1699,2630,-3279,-114,91,302,34,8721,
16587,6152,-7088,14468,488,3583,-1450,-128,93,308,34,77626,
16588,5756,-8540,15372,470,2154,-1668,-124,91,310,34,72834,
16589,5572,-7764,15492,1285,1667,-1275,-124,91,310,34,72834,
16590,5076,-7992,14496,131,2069,-495,-124,91,310,34,53665,
16591,4832,-8164,15144,437,1527,-508,-112,97,302,34,58457,
16592,4892,-8596,15248,732,723,-645,-101,97,307,34,39288,
16593,4868,-7976,14596,362,837,35,-106,99,305,34,39288,
16594,4728,-8824,14444,-286,776,156,-106,99,305,34,39288,
16595,4600,-9024,13688,-214,783,-9,-106,99,305,34,39288,
16596,4568,-8980,14016,-203,416,-100,-110,106,313,34,39288,
16597,4520,-8856,13588,-473,378,-148,-99,89,302,34,24911,
16598,4828,-8352,13812,-601,152,177,-100,93,311,34,00949,
16599,4616,-8524,13288,-260,-94,52,-100,93,311,34,00949,
16600,4464,-8288,13168,-359,113,371,-100,93,311,34,15326,
16601,4224,-8944,13324,-194,-258,175,-103,90,301,33,86573,
16602,4228,-8752,12892,-192,84,242,-99,89,302,34,00949,
16603,4164,-9144,13236,-299,195,128,-99,89,302,33,96157,
16604,4340,-9196,13280,-321,92,17,-99,89,302,33,8178,
16605,4300,-8868,13096,-340,131,80,-99,89,302,33,86573,
16606,4492,-8960,13648,-304,-43,194,-103,103,306,33,86573,
16607,4268,-9240,13188,-60,91,113,-98,101,306,33,8178,
16608,4168,-9224,13184,-166,108,11,-105,90,311,33,62611,
16609,4220,-8796,13380,156,-163,-53,-105,90,311,33,86573,
16610,4144,-9008,12876,46,115,-173,-105,90,311,33,86573,
16611,4084,-8900,13020,-174,266,-158,-96,89,292,33,86573,
16612,4132,-8848,13140,243,52,-364,-95,101,306,33,62611,
16613,4208,-8876,12848,387,362,-291,-101,91,307,33,8178,
16614,4280,-8976,13348,258,489,-273,-101,91,307,33,86573,
16615,4392,-8848,13776,222,220,-269,-101,91,307,33,72196,
16616,4440,-8844,13884,260,-85,-145,-91,91,305,33,67403,
16617,4208,-8912,13220,152,130,-107,-98,95,311,33,67403,
16618,4356,-8952,13532,102,67,-123,-98,95,311,33,72196,
16619,4352,-8804,13324,203,35,-2,-101,94,305,33,62611,
16620,4320,-8628,13580,106,24,103,-101,94,305,33,67403,
16621,4272,-8644,13632,199,-132,65,-98,101,301,33,67403,
16622,4304,-8808,13452,114,-175,108,-103,103,313,33,48235,
16623,4184,-8844,13244,-68,78,191,-103,103,313,33,43442,
16624,3984,-8864,13224,-234,328,116,-98,93,301,33,53027,
16625,4384,-8852,13648,38,-22,-122,-98,93,301,33,53027,
16626,4220,-8672,13492,-104,-48,-23,-96,94,310,33,43442,
16627,4312,-8804,13224,69,-117,16,-91,97,310,33,53027,
16628,4240,-8740,13392,-157,90,67,-91,97,310,33,43442,
16629,4392,-8808,13648,232,-167,-21,-89,94,300,33,48235,
16630,4068,-8616,12868,236,304,54,-89,94,300,33,62611,
16631,4012,-8880,13608,187,152,-71,-95,98,308,33,62611,
16632,3972,-8712,13220,42,421,-12,-100,95,311,33,72196,
16633,4188,-8672,13632,103,378,54,-100,95,311,33,48235,
16634,4160,-8892,13960,190,164,-82,-96,99,305,33,14688,
16635,4096,-8688,13532,-38,169,-12,-100,98,306,33,53027,
16636,3972,-8668,13524,-2,73,65,-96,97,307,33,48235,
16637,3792,-8932,12964,-196,408,46,-105,98,301,33,43442,
16638,4164,-8732,13724,246,67,-77,-105,98,301,33,43442,
16639,4072,-8384,13464,167,230,144,-105,98,301,33,43442,
16640,4040,-8636,13768,125,26,121,-87,95,318,33,53027,
16641,3884,-8904,13168,76,207,-5,-91,102,305,33,53027,
16642,3920,-8544,13428,192,249,-36,-98,98,308,33,29065,
16643,4192,-8520,13892,170,93,127,-98,98,308,33,43442,
16644,3892,-8928,13620,64,35,-62,-98,98,308,33,29065,
16645,3980,-8916,13508,-23,79,-124,-89,102,315,33,09896,
16646,4084,-8424,13668,-37,11,198,-100,103,306,33,43442,
16647,3852,-8616,13580,110,-310,67,-100,103,306,33,43442,
16648,3756,-8564,13200,156,24,91,-96,86,305,33,33857,
16649,3868,-8612,13356,69,32,103,-96,86,305,33,53027,
16650,3796,-8600,13636,-18,168,84,-92,101,308,33,33857,
16651,3864,-8856,13804,231,-147,-178,-100,93,308,33,29065,
16652,3748,-8728,13160,116,170,-135,-100,93,308,33,33857,
16653,3980,-8632,13616,235,152,-28,-80,103,311,33,48235,
16654,3836,-8376,13664,537,-182,-52,-80,103,311,33,43442,
16655,3944,-8252,13656,271,118,86,-92,98,318,33,48235,
16656,4000,-8492,14056,242,-46,164,-89,107,320,33,48235,
16657,4028,-8368,13956,30,-106,297,-89,107,320,33,53027,
16658,3868,-8680,13856,-76,-276,147,-91,107,315,33,62611,
16659,3724,-8644,13428,26,-122,-21,-89,102,292,33,48235,
16660,3856,-8356,13688,13,-201,-25,-92,98,313,33,33857,
16661,3764,-8456,13264,320,50,-64,-99,94,312,33,48235,
16662,3696,-8360,13336,268,363,-111,-99,94,312,33,62611,
16663,4104,-8308,14168,232,31,97,-99,94,312,33,14688,
16664,4368,-8932,12744,6,39,57,-95,95,313,33,43442,
16665,4060,-8492,14072,1,-224,-70,-89,112,312,33,53027,
16666,4008,-8436,13704,-163,-161,92,-85,106,298,33,43442,
16667,3820,-8332,13760,-203,-160,68,-85,106,298,33,43442,
16668,3852,-8652,13672,138,-114,-31,-85,106,298,33,43442,
16669,3740,-8168,13632,76,-149,134,-82,98,313,33,43442,
16670,3924,-8524,13672,144,-379,21,-100,95,298,33,53027,
16671,3680,-8572,13228,-116,-23,-44,-77,103,301,33,48235,
16672,3804,-8368,13616,35,70,-19,-77,103,301,33,14688,
16673,3940,-8520,13456,33,250,-6,-77,103,301,33,43442,
16674,3936,-8636,13788,33,187,-76,-91,105,310,33,33857,
16675,3844,-8852,13708,-50,160,-62,-91,105,307,33,43442,
16676,4040,-8460,14072,34,-63,24,-91,105,307,33,53027,
16677,3792,-8500,13668,-77,-130,119,-89,102,320,33,19481,
16678,3840,-8520,13704,-123,-31,103,-89,102,320,33,43442,
16679,3716,-8396,13584,-125,-113,81,-92,95,306,33,19481,
16680,3824,-8432,13684,-199,-176,25,-94,89,312,33,53027,
16681,3836,-8524,13820,-92,-233,18,-94,89,312,33,14688,
16682,3868,-8260,13568,128,-201,173,-95,101,306,33,33857,
16683,3984,-8220,14392,162,-786,542,-96,107,307,33,48235,
16684,3984,-8420,14356,-107,-1306,771,-94,99,307,33,43442,
16685,4140,-8400,14544,-133,-2428,862,-99,102,307,33,48235,
16686,4240,-7936,14092,138,-2766,1486,-99,102,307,33,43442,
16687,4932,-7028,15440,2182,-4106,1546,-99,102,307,33,48235,
16688,5512,-7608,16116,1853,-4747,2187,-109,105,312,33,53027,
16689,5564,-8288,15272,-613,-4170,2975,-104,107,317,33,29065,
16690,5668,-8964,14732,-1596,-3308,2506,-114,105,307,33,19481,
16691,5696,-8868,14476,-2864,-2982,2693,-114,105,307,33,33857,
16692,5332,-9352,14052,-3736,-3308,2727,-114,105,307,33,53027,
16693,5280,-9756,12728,-3394,-3882,2699,-126,93,313,33,48235,
16694,4680,-9940,11600,-3060,-4066,2589,-122,91,305,33,43442,
16695,4964,-9824,11188,-2407,-4594,2414,-133,87,311,33,19481,
16696,4792,-10504,9920,-1043,-4112,1524,-133,87,311,33,29065,
16697,4720,-10868,9328,-1388,-2787,1473,-133,87,311,33,29065,
16698,4864,-10016,10292,-2563,-2645,1874,-148,80,298,33,14688,
16699,4896,-10772,9340,-1106,-2103,1015,-143,69,301,33,33857,
16700,5056,-11892,8904,-1165,-832,641,-152,65,300,33,43442,
16701,5152,-11452,9728,-1927,65,378,-152,65,300,33,19481,
16702,6028,-11096,11236,-793,-1078,-133,-152,65,300,33,19481,
16703,6036,-9812,10744,-1147,-1100,656,-145,65,302,33,43442,
16704,5636,-11004,9924,-1045,-34,730,-151,61,296,33,29065,
16705,5132,-11612,9736,-1163,188,667,-151,61,296,33,14688,
16706,5164,-12248,9884,-402,-238,-130,-150,55,290,33,19481,
16707,4480,-11144,5416,-6008,5810,1360,-155,63,295,33,43442,
16708,6580,-11080,14212,-1379,2281,828,-141,51,291,33,53027,
16709,6204,-12572,14080,1765,-2139,-1190,-142,55,295,33,67403,
16710,4604,-12228,8684,-1260,794,-594,-142,55,295,33,62611,
16711,5480,-11440,10940,-751,1274,119,-142,55,295,33,67403,
16712,5848,-12108,12144,1384,-661,-761,-141,51,286,33,86573,
16713,5612,-11524,11260,1243,-819,-497,-150,49,290,33,86573,
16714,5584,-11584,10320,271,-85,-329,-138,51,291,33,86573,
16715,5756,-11008,10948,152,206,17,-138,51,291,33,96157,
16716,5752,-11692,11552,337,-240,46,-138,51,291,34,15326,
16717,5264,-12064,10308,-245,404,-271,-136,43,293,33,96157,
16718,5900,-11668,11488,130,387,-431,-146,56,291,34,15326,
16719,5816,-11432,11296,215,17,-360,-136,51,293,34,15326,
16720,5404,-11744,10612,-335,850,-459,-136,51,293,34,15326,
16721,6064,-10952,11972,-220,442,-25,-136,51,293,34,24911,
16722,5856,-11072,11176,395,203,-40,-134,42,295,34,00949,
16723,5696,-11620,11220,342,284,-70,-136,51,293,34,05742,
16724,5484,-11124,11416,377,194,137,-137,57,290,34,39288,
16725,5204,-11028,11236,505,40,333,-137,57,290,34,53665,
16726,4964,-12300,10440,608,270,-336,-131,51,291,34,39288,
16727,5256,-11164,10904,247,1173,-221,-142,49,302,34,53665,
16728,5852,-11148,12440,255,713,-397,-134,39,292,34,53665,
16729,5484,-11276,11872,465,303,-329,-126,48,291,34,68042,
16730,5416,-11220,11864,358,393,-160,-126,48,291,34,58457,
16731,5448,-11268,11880,-33,321,-174,-137,52,297,34,68042,
16732,5232,-11368,11712,266,14,-416,-137,52,297,34,68042,
16733,4640,-11764,10532,125,603,-793,-134,60,290,34,53665,
16734,4964,-10940,10444,-199,1693,-711,-134,60,290,34,72834,
16735,5740,-10164,12092,247,1281,-272,-133,59,296,34,72834,
16736,5624,-11304,12608,1274,44,-752,-132,49,295,34,8721,
16737,5088,-11172,11152,442,711,-547,-132,49,295,34,68042,
16738,4964,-11428,11332,564,622,-782,-127,65,292,34,72834,
16739,5044,-11024,11068,501,1098,-808,-127,65,292,34,68042,
16740,4984,-11140,10572,793,1476,-1173,-122,63,297,34,58457,
16741,4800,-10436,10108,495,2801,-810,-120,59,293,34,8721,
16742,4792,-10412,10764,453,3160,-858,-126,59,301,34,68042,
16743,4568,-10416,10480,1444,3424,-1206,-128,51,296,34,72834,
16744,4432,-10412,10588,388,4501,-813,-128,51,296,34,68042,
16745,5212,-9820,12892,732,3676,-311,-115,56,293,34,48872,
16746,4604,-10268,12328,2005,2977,-623,-105,64,303,34,72834,
16747,4520,-10044,12588,412,3742,204,-101,63,295,34,58457,
16748,4352,-10564,14044,1003,2570,-66,-101,63,295,34,58457,
16749,4308,-9708,13236,2457,1501,-269,-101,63,295,34,68042,
16750,3496,-9980,12776,561,2842,278,-92,61,301,34,39288,
16751,3640,-9988,13756,761,2867,467,-87,66,303,34,53665,
16752,3224,-10696,13736,2085,2106,-495,-92,69,308,34,39288,
16753,2512,-10180,12156,1702,3261,-582,-92,69,308,34,39288,
16754,2720,-10404,13480,37,3722,-459,-92,69,308,34,15326,
16755,3156,-9332,14880,844,2733,-508,-87,72,298,34,53665,
16756,2884,-9780,14372,1028,2342,-1056,-75,80,296,34,34496,
16757,2720,-9492,13436,694,2787,-1177,-70,80,306,34,39288,
16758,2644,-8740,14196,17,2430,-538,-70,80,306,34,39288,
16759,2300,-9160,14500,156,1572,-553,-70,80,306,34,00949,
16760,2308,-9240,14700,629,595,-15,-57,82,298,34,15326,
16761,1936,-9524,14024,268,271,-160,-54,85,298,34,05742,
16762,1960,-8820,14436,821,-321,372,-52,80,306,34,34496,
16763,1572,-9280,14268,1864,-1025,24,-52,80,306,34,20119,
